File: data/refractive_index_data/filmetrics/trans_SiO2_Au100nm_SiO2.txt
Wavelength (nm)	Transmittance
210	0.0004447
212	0.0004348
214	0.000428
216	0.0004281
218	0.0004269
220	0.0004208
222	0.0004179
224	0.0004201
226	0.0004185
228	0.0004095
230	0.0004009
232	0.0003971
234	0.0003928
236	0.0003836
238	0.0003737
240	0.0003658
242	0.0003582
244	0.0003502
246	0.0003411
248	0.0003297
250	0.0003119
252	0.0002953
254	0.0002823
256	0.0002734
258	0.0002676
260	0.0002653
262	0.0002643
264	0.0002638
266	0.0002617
268	0.0002603
270	0.00026
272	0.0002619
274	0.0002646
276	0.0002675
278	0.0002701
280	0.0002736
282	0.0002778
284	0.000285
286	0.0002931
288	0.000302
290	0.0003105
292	0.0003192
294	0.0003297
296	0.0003422
298	0.0003579
300	0.0003756
302	0.0003949
304	0.000416
306	0.0004381
308	0.000463
310	0.0004891
312	0.0005182
314	0.0005486
316	0.0005838
318	0.000621
320	0.0006672
322	0.0007162
324	0.0007693
326	0.0008255
328	0.0008801
330	0.0009368
332	0.0009945
334	0.0010542
336	0.0011167
338	0.0011821
340	0.0012497
342	0.0013156
344	0.0013842
346	0.0014461
348	0.0015075
350	0.0015678
352	0.0016248
354	0.0016832
356	0.0017395
358	0.0017966
360	0.0018511
362	0.0018978
364	0.0019452
366	0.0019745
368	0.0019947
370	0.002015
372	0.0020318
374	0.0020485
376	0.0020677
378	0.0021018
380	0.0021362
382	0.0021729
384	0.0022161
386	0.0022597
388	0.002305
390	0.0023538
392	0.0024032
394	0.0024549
396	0.002515
398	0.0025759
400	0.0026381
402	0.002715
404	0.0027933
406	0.0028732
408	0.0029642
410	0.0030606
412	0.0031592
414	0.0032648
416	0.0033816
418	0.0035015
420	0.0036244
422	0.0037638
424	0.0039095
426	0.0040594
428	0.0042174
430	0.0043927
432	0.0045737
434	0.0047604
436	0.0049644
438	0.005188
440	0.0054197
442	0.0056599
444	0.005935
446	0.0062396
448	0.0065575
450	0.006889
452	0.007243
454	0.0076192
456	0.0080122
458	0.0084229
460	0.0088528
462	0.0093036
464	0.0097743
466	0.0102657
468	0.0107744
470	0.0112433
472	0.0117309
474	0.0122378
476	0.0127648
478	0.0132654
480	0.0137489
482	0.0142522
484	0.0147762
486	0.0153223
488	0.0156092
490	0.0158725
492	0.0161468
494	0.0164326
496	0.0167116
498	0.0163964
500	0.0160937
502	0.0158028
504	0.0155227
506	0.0152525
508	0.0146674
510	0.0140972
512	0.0135508
514	0.0130266
516	0.0125234
518	0.0118646
520	0.011169
522	0.0105128
524	0.0098939
526	0.0093103
528	0.0087547
530	0.0082116
532	0.0077017
534	0.0072228
536	0.0067732
538	0.0063511
540	0.0059829
542	0.0056669
544	0.0053679
546	0.005085
548	0.0048174
550	0.0045643
552	0.0043635
554	0.0042132
556	0.0040684
558	0.0039289
560	0.0037946
562	0.0036652
564	0.0035687
566	0.0035768
568	0.0035847
570	0.0035925
572	0.0036002
574	0.0036077
576	0.003615
578	0.0036507
580	0.0037013
582	0.0037523
584	0.0038036
586	0.0038552
588	0.0039071
590	0.0039594
592	0.0039942
594	0.0040245
596	0.0040547
598	0.0040849
600	0.0041151
602	0.0041453
604	0.0041755
606	0.0042062
608	0.0042371
610	0.0042681
612	0.0042991
614	0.00433
616	0.0043609
618	0.0043916
620	0.004424
622	0.0045038
624	0.0045845
626	0.0046662
628	0.0047489
630	0.0048325
632	0.0049171
634	0.0050026
636	0.00508
638	0.0050666
640	0.0050532
642	0.00504
644	0.0050267
646	0.0050134
648	0.0049999
650	0.0049865
652	0.0049731
654	0.0047651
656	0.0044979
658	0.0042468
660	0.0040106
662	0.0037884
664	0.0035794
666	0.0033829
668	0.003198
670	0.003024
672	0.0028338
674	0.0026537
676	0.0024858
678	0.0023293
680	0.0021834
682	0.0020472
684	0.00192
686	0.0018014
688	0.0016907
690	0.0016055
692	0.0015368
694	0.0014714
696	0.001409
698	0.0013496
700	0.001293
702	0.001239
704	0.0011874
706	0.0011383
708	0.0010914
710	0.0010524
712	0.0010166
714	0.0009823
716	0.0009492
718	0.0009174
720	0.0008868
722	0.0008574
724	0.0008291
726	0.0008018
728	0.0007755
730	0.0007518
732	0.0007318
734	0.0007125
736	0.0006937
738	0.0006755
740	0.0006579
742	0.0006408
744	0.0006242
746	0.0006082
748	0.0005926
750	0.0005774
752	0.0005633
754	0.0005508
756	0.0005387
758	0.0005269
760	0.0005154
762	0.0005042
764	0.0004933
766	0.0004827
768	0.0004723
770	0.0004623
772	0.0004524
774	0.0004429
776	0.0004335
778	0.0004244
780	0.0004156
782	0.0004069
784	0.0003985
786	0.0003903
788	0.0003823
790	0.0003745
792	0.0003668
794	0.0003594
796	0.0003521
798	0.0003451
800	0.0003382
802	0.0003324
804	0.0003266
806	0.000321
808	0.0003156
810	0.0003102
812	0.000305
814	0.0002998
816	0.0002948
818	0.0002899
820	0.0002851
822	0.0002803
824	0.0002757
826	0.0002711
828	0.0002677
830	0.0002647
832	0.0002618
834	0.0002588
836	0.000256
838	0.0002532
840	0.0002504
842	0.0002476
844	0.0002449
846	0.0002423
848	0.0002396
850	0.000237
852	0.0002345
854	0.000232
856	0.0002296
858	0.0002274
860	0.0002252
862	0.0002231
864	0.000221
866	0.0002189
868	0.0002168
870	0.0002148
872	0.0002128
874	0.0002108
876	0.0002089
878	0.0002069
880	0.000205
882	0.0002031
884	0.0002013
886	0.0001994
888	0.0001971
890	0.0001949
892	0.0001927
894	0.0001906
896	0.0001885
898	0.0001864
900	0.0001843
902	0.0001823
904	0.0001803
906	0.0001783
908	0.0001764
910	0.0001745
912	0.0001726
914	0.0001708
916	0.0001689
918	0.0001671
920	0.0001654
922	0.0001638
924	0.0001622
926	0.0001606
928	0.000159
930	0.0001575
932	0.000156
934	0.0001544
936	0.000153
938	0.0001515
940	0.00015
942	0.0001486
944	0.0001472
946	0.0001458
948	0.0001444
950	0.0001431
952	0.0001417
954	0.0001404
956	0.0001396
958	0.0001388
960	0.000138
962	0.0001372
964	0.0001364
966	0.0001356
968	0.0001349
970	0.0001341
972	0.0001333
974	0.0001326
976	0.0001318
978	0.0001311
980	0.0001303
982	0.0001296
984	0.0001289
986	0.0001281
988	0.0001274
990	0.0001267
992	0.000126
994	0.0001252
996	0.0001244
998	0.0001236
1000	0.0001229
1002	0.0001221
1004	0.0001213
1006	0.0001206
1008	0.0001198
1010	0.0001191
1012	0.0001184
1014	0.0001177
1016	0.0001169
1018	0.0001162
1020	0.0001155
1022	0.0001148
1024	0.0001141
1026	0.0001134
1028	0.0001127
1030	0.000112
1032	0.0001114
1034	0.0001105
1036	0.0001093
1038	0.0001082
1040	0.0001071
1042	0.000106
1044	0.0001049
1046	0.0001038
1048	0.0001027
1050	0.0001016
1052	0.0001006
1054	9.96e-05
1056	9.86e-05
1058	9.75e-05
1060	9.66e-05
1062	9.56e-05
1064	9.46e-05
1066	9.37e-05
1068	9.27e-05
1070	9.18e-05
1072	9.09e-05
1074	9e-05
1076	8.91e-05
1078	8.82e-05
1080	8.74e-05
1082	8.66e-05
1084	8.57e-05
1086	8.49e-05
1088	8.42e-05
1090	8.34e-05
1092	8.26e-05
1094	8.18e-05
1096	8.11e-05
1098	8.03e-05
1100	7.96e-05
1102	7.89e-05
1104	7.82e-05
1106	7.75e-05
1108	7.68e-05
1110	7.61e-05
1112	7.54e-05
1114	7.47e-05
1116	7.4e-05
1118	7.34e-05
1120	7.27e-05
1122	7.21e-05
1124	7.15e-05
1126	7.08e-05
1128	7.02e-05
1130	6.97e-05
1132	6.91e-05
1134	6.85e-05
1136	6.8e-05
1138	6.74e-05
1140	6.69e-05
1142	6.64e-05
1144	6.58e-05
1146	6.53e-05
1148	6.48e-05
1150	6.43e-05
1152	6.38e-05
1154	6.33e-05
1156	6.28e-05
1158	6.23e-05
1160	6.18e-05
1162	6.13e-05
1164	6.08e-05
1166	6.04e-05
1168	5.99e-05
1170	5.95e-05
1172	5.9e-05
1174	5.85e-05
1176	5.81e-05
1178	5.77e-05
1180	5.72e-05
1182	5.7e-05
1184	5.7e-05
1186	5.69e-05
1188	5.69e-05
1190	5.68e-05
1192	5.68e-05
1194	5.67e-05
1196	5.67e-05
1198	5.66e-05
1200	5.66e-05
1202	5.65e-05
1204	5.64e-05
1206	5.64e-05
1208	5.63e-05
1210	5.63e-05
1212	5.62e-05
1214	5.62e-05
1216	5.61e-05
1218	5.61e-05
1220	5.6e-05
1222	5.6e-05
1224	5.59e-05
1226	5.59e-05
1228	5.58e-05
1230	5.58e-05
1232	5.57e-05
1234	5.57e-05
1236	5.56e-05
1238	5.56e-05
1240	5.56e-05
1242	5.64e-05
1244	5.72e-05
1246	5.81e-05
1248	5.89e-05
1250	5.98e-05
1252	6.06e-05
1254	6.15e-05
1256	6.24e-05
1258	6.33e-05
1260	6.42e-05
1262	6.51e-05
1264	6.61e-05
1266	6.7e-05
1268	6.79e-05
1270	6.89e-05
1272	6.99e-05
1274	7.08e-05
1276	7.18e-05
1278	7.28e-05
1280	7.38e-05
1282	7.49e-05
1284	7.59e-05
1286	7.69e-05
1288	7.8e-05
1290	7.91e-05
1292	8.01e-05
1294	8.12e-05
1296	8.23e-05
1298	8.34e-05
1300	8.46e-05
1302	8.57e-05
1304	8.69e-05
1306	8.8e-05
1308	8.91e-05
1310	9.02e-05
1312	9.13e-05
1314	9.24e-05
1316	9.35e-05
1318	9.47e-05
1320	9.58e-05
1322	9.7e-05
1324	9.82e-05
1326	9.94e-05
1328	0.0001006
1330	0.0001018
1332	0.000103
1334	0.0001042
1336	0.0001055
1338	0.0001067
1340	0.000108
1342	0.0001093
1344	0.0001105
1346	0.0001118
1348	0.0001131
1350	0.0001145
1352	0.0001158
1354	0.0001171
1356	0.0001185
1358	0.0001198
1360	0.0001212
1362	0.0001226
1364	0.000124
1366	0.0001254
1368	0.0001268
1370	0.0001283
1372	0.0001297
1374	0.0001312
1376	0.0001326
1378	0.0001338
1380	0.0001338
1382	0.0001337
1384	0.0001336
1386	0.0001336
1388	0.0001335
1390	0.0001334
1392	0.0001334
1394	0.0001333
1396	0.0001332
1398	0.0001332
1400	0.0001331
1402	0.000133
1404	0.0001329
1406	0.0001329
1408	0.0001328
1410	0.0001327
1412	0.0001327
1414	0.0001326
1416	0.0001325
1418	0.0001324
1420	0.0001324
1422	0.0001323
1424	0.0001322
1426	0.0001321
1428	0.0001321
1430	0.000132
1432	0.0001319
1434	0.0001319
1436	0.0001318
1438	0.0001317
1440	0.0001316
1442	0.0001316
1444	0.0001315
1446	0.0001314
1448	0.0001313
1450	0.0001313
1452	0.0001312
1454	0.0001311
1456	0.000131
1458	0.000131
1460	0.0001306
1462	0.0001302
1464	0.0001298
1466	0.0001293
1468	0.0001289
1470	0.0001285
1472	0.000128
1474	0.0001276
1476	0.0001272
1478	0.0001268
1480	0.0001263
1482	0.0001259
1484	0.0001255
1486	0.0001251
1488	0.0001247
1490	0.0001242
1492	0.0001238
1494	0.0001234
1496	0.000123
1498	0.0001226
1500	0.0001222
1502	0.0001218
1504	0.0001214
1506	0.000121
1508	0.0001206
1510	0.0001203
1512	0.0001199
1514	0.0001195
1516	0.0001191
1518	0.0001187
1520	0.0001183
1522	0.0001179
1524	0.0001176
1526	0.0001172
1528	0.0001168
1530	0.0001164
1532	0.0001161
1534	0.0001157
1536	0.0001153
1538	0.000115
1540	0.0001146
1542	0.0001142
1544	0.0001139
1546	0.0001135
1548	0.0001132
1550	0.0001128
1552	0.0001125
1554	0.0001123
1556	0.000112
1558	0.0001117
1560	0.0001115
1562	0.0001112
1564	0.000111
1566	0.0001107
1568	0.0001104
1570	0.0001102
1572	0.0001099
1574	0.0001097
1576	0.0001094
1578	0.0001092
1580	0.0001089
1582	0.0001087
1584	0.0001084
1586	0.0001081
1588	0.0001079
1590	0.0001076
1592	0.0001074
1594	0.0001071
1596	0.0001069
1598	0.0001066
1600	0.0001064
1602	0.0001062
1604	0.0001059
1606	0.0001057
1608	0.0001054
1610	0.0001052
1612	0.0001049
1614	0.0001047
1616	0.0001045
1618	0.0001042
1620	0.000104
1622	0.0001038
1624	0.0001035
1626	0.0001033
1628	0.0001031
1630	0.0001028
1632	0.0001026
1634	0.0001024
1636	0.0001021
1638	0.0001019
1640	0.0001017
1642	0.0001014
1644	0.0001012
1646	0.000101
1648	0.0001007
1650	0.0001005
1652	0.0001003
1654	0.0001001
1656	9.98e-05
1658	9.96e-05
1660	9.94e-05
1662	9.92e-05
1664	9.89e-05
1666	9.87e-05
1668	9.85e-05
1670	9.83e-05
1672	9.8e-05
1674	9.78e-05
1676	9.76e-05
1678	9.74e-05
1680	9.72e-05
1682	9.69e-05
1684	9.67e-05
1686	9.65e-05
1688	9.63e-05
1690	9.61e-05
1692	9.59e-05
1694	9.56e-05
1696	9.54e-05
1698	9.52e-05
1700	9.5e-05
1702	9.48e-05
1704	9.46e-05
1706	9.44e-05
1708	9.42e-05
1710	9.4e-05
1712	9.37e-05
1714	9.35e-05
1716	9.33e-05
1718	9.31e-05
1720	9.29e-05
1722	9.27e-05
1724	9.25e-05
1726	9.23e-05
1728	9.21e-05
1730	9.19e-05
1732	9.17e-05
1734	9.15e-05
1736	9.13e-05
1738	9.11e-05
1740	9.09e-05
1742	9.07e-05
1744	9.05e-05
1746	9.03e-05
1748	9.01e-05
1750	8.99e-05
1752	8.97e-05
1754	8.95e-05
1756	8.93e-05
1758	8.91e-05
1760	8.9e-05
1762	8.88e-05
1764	8.86e-05
1766	8.84e-05
1768	8.82e-05
1770	8.8e-05
1772	8.78e-05
1774	8.77e-05
1776	8.75e-05
1778	8.73e-05
1780	8.72e-05
1782	8.7e-05
1784	8.69e-05
1786	8.67e-05
1788	8.66e-05
1790	8.64e-05
1792	8.62e-05
1794	8.61e-05
1796	8.59e-05
1798	8.58e-05
1800	8.56e-05
1802	8.55e-05
1804	8.53e-05
1806	8.52e-05
1808	8.5e-05
1810	8.49e-05
1812	8.47e-05
1814	8.46e-05
1816	8.44e-05
1818	8.43e-05
1820	8.41e-05
1822	8.4e-05
1824	8.38e-05
1826	8.37e-05
1828	8.35e-05
1830	8.34e-05
1832	8.32e-05
1834	8.31e-05
1836	8.29e-05
1838	8.28e-05
1840	8.26e-05
1842	8.25e-05
1844	8.23e-05
1846	8.22e-05
1848	8.2e-05
1850	8.19e-05
1852	8.18e-05
1854	8.16e-05
1856	8.15e-05
1858	8.13e-05
1860	8.12e-05
1862	8.1e-05
1864	8.09e-05
1866	8.08e-05
1868	8.06e-05
1870	8.05e-05
1872	8.03e-05
1874	8.02e-05
1876	8.01e-05
1878	7.99e-05
1880	7.98e-05
1882	7.96e-05
1884	7.95e-05
1886	7.94e-05
1888	7.92e-05
1890	7.91e-05
1892	7.9e-05
1894	7.88e-05
1896	7.87e-05
1898	7.85e-05
1900	7.84e-05
1902	7.83e-05
1904	7.81e-05
1906	7.8e-05
1908	7.79e-05
1910	7.77e-05
1912	7.76e-05
1914	7.75e-05
1916	7.73e-05
1918	7.72e-05
1920	7.71e-05
1922	7.69e-05
1924	7.68e-05
1926	7.67e-05
1928	7.65e-05
1930	7.64e-05
1932	7.63e-05
1934	7.61e-05
1936	7.6e-05
1938	7.59e-05
1940	7.57e-05
1942	7.56e-05
1944	7.55e-05
1946	7.54e-05
1948	7.52e-05
1950	7.51e-05
1952	7.5e-05
1954	7.48e-05
1956	7.47e-05
1958	7.46e-05
1960	7.45e-05
1962	7.43e-05
1964	7.42e-05
1966	7.41e-05
1968	7.4e-05
1970	7.38e-05
1972	7.37e-05
1974	7.36e-05
1976	7.35e-05
1978	7.33e-05
1980	7.32e-05
1982	7.31e-05
1984	7.3e-05
1986	7.28e-05
1988	7.27e-05
1990	7.26e-05
1992	7.25e-05
1994	7.24e-05
1996	7.22e-05
1998	7.21e-05
2000	7.2e-05
2002	7.19e-05
2004	7.18e-05
2006	7.16e-05
2008	7.15e-05
2010	7.14e-05
2012	7.13e-05
2014	7.12e-05
2016	7.1e-05
2018	7.09e-05
2020	7.08e-05
2022	7.07e-05
2024	7.06e-05
2026	7.05e-05
2028	7.03e-05
2030	7.02e-05
2032	7.01e-05
2034	7e-05
2036	6.99e-05
2038	6.98e-05
2040	6.96e-05
2042	6.95e-05
2044	6.94e-05
2046	6.93e-05
2048	6.92e-05
2050	6.91e-05
2052	6.9e-05
2054	6.88e-05
2056	6.87e-05
2058	6.86e-05
2060	6.85e-05
2062	6.84e-05
2064	6.83e-05
2066	6.82e-05
2068	6.81e-05
2070	6.79e-05
2072	6.78e-05
2074	6.77e-05
2076	6.76e-05
2078	6.75e-05
2080	6.74e-05
2082	6.73e-05
2084	6.72e-05
2086	6.71e-05
2088	6.7e-05
2090	6.69e-05
2092	6.68e-05
2094	6.66e-05
2096	6.65e-05
2098	6.64e-05
2100	6.63e-05
2102	6.62e-05
2104	6.61e-05
2106	6.6e-05
2108	6.59e-05
2110	6.58e-05
2112	6.57e-05
2114	6.56e-05
2116	6.55e-05
2118	6.54e-05
2120	6.53e-05
2122	6.52e-05
2124	6.51e-05
2126	6.5e-05
2128	6.49e-05
2130	6.48e-05
2132	6.46e-05
2134	6.45e-05
2136	6.44e-05
2138	6.43e-05
2140	6.42e-05
2142	6.41e-05
2144	6.4e-05
2146	6.39e-05
2148	6.38e-05
2150	6.37e-05
2152	6.36e-05
2154	6.35e-05
2156	6.34e-05
2158	6.33e-05
2160	6.32e-05
2162	6.31e-05
2164	6.3e-05
2166	6.29e-05
2168	6.28e-05
2170	6.27e-05
2172	6.26e-05
2174	6.25e-05
2176	6.24e-05
2178	6.23e-05
2180	6.22e-05
2182	6.21e-05
2184	6.21e-05
2186	6.2e-05
2188	6.19e-05
2190	6.18e-05
2192	6.17e-05
2194	6.16e-05
2196	6.15e-05
2198	6.14e-05
2200	6.13e-05
2202	6.12e-05
2204	6.11e-05
2206	6.1e-05
2208	6.09e-05
2210	6.08e-05
2212	6.07e-05
2214	6.06e-05
2216	6.05e-05
2218	6.04e-05
2220	6.03e-05
2222	6.03e-05
2224	6.02e-05
2226	6.01e-05
2228	6e-05
2230	5.99e-05
2232	5.98e-05
2234	5.97e-05
2236	5.96e-05
2238	5.95e-05
2240	5.94e-05
2242	5.93e-05
2244	5.92e-05
2246	5.92e-05
2248	5.91e-05
2250	5.9e-05
2252	5.89e-05
2254	5.88e-05
2256	5.87e-05
2258	5.86e-05
2260	5.85e-05
2262	5.85e-05
2264	5.84e-05
2266	5.83e-05
2268	5.82e-05
2270	5.81e-05
2272	5.8e-05
2274	5.8e-05
2276	5.79e-05
2278	5.78e-05
2280	5.77e-05
2282	5.76e-05
2284	5.76e-05
2286	5.75e-05
2288	5.74e-05
2290	5.73e-05
2292	5.72e-05
2294	5.72e-05
2296	5.71e-05
2298	5.7e-05
2300	5.69e-05
2302	5.68e-05
2304	5.68e-05
2306	5.67e-05
2308	5.66e-05
2310	5.65e-05
2312	5.64e-05
2314	5.64e-05
2316	5.63e-05
2318	5.62e-05
2320	5.61e-05
2322	5.6e-05
2324	5.6e-05
2326	5.59e-05
2328	5.58e-05
2330	5.57e-05
2332	5.57e-05
2334	5.56e-05
2336	5.55e-05
2338	5.54e-05
2340	5.53e-05
2342	5.53e-05
2344	5.52e-05
2346	5.51e-05
2348	5.5e-05
2350	5.5e-05
2352	5.49e-05
2354	5.48e-05
2356	5.47e-05
2358	5.47e-05
2360	5.46e-05
2362	5.45e-05
2364	5.44e-05
2366	5.44e-05
2368	5.43e-05
2370	5.42e-05
2372	5.41e-05
2374	5.41e-05
2376	5.4e-05
2378	5.39e-05
2380	5.38e-05
2382	5.38e-05
2384	5.37e-05
2386	5.36e-05
2388	5.35e-05
2390	5.35e-05
2392	5.34e-05
2394	5.33e-05
2396	5.33e-05
2398	5.32e-05
2400	5.31e-05