File: data/refractive_index_data/filmetrics/trans_SiO2_Au10nm_Air10000nm_Au10nm_SiO2.txt
Wavelength (nm)	Transmittance
210	0.1613288
212	0.1449665
214	0.1495722
216	0.1845996
218	0.2398222
220	0.2582257
222	0.2043351
224	0.1432965
226	0.1485169
228	0.2275032
230	0.2495018
232	0.1552082
234	0.1378858
236	0.232785
238	0.2194142
240	0.1269062
242	0.1843224
244	0.2408951
246	0.1254531
248	0.179025
250	0.224325
252	0.1149453
254	0.2151654
256	0.1613977
258	0.1249093
260	0.2398169
262	0.1077321
264	0.2108719
266	0.1305776
268	0.1451981
270	0.1731417
272	0.1119023
274	0.208503
276	0.0993897
278	0.2232789
280	0.0949134
282	0.225789
284	0.0930616
286	0.2236666
288	0.0928308
290	0.215375
292	0.0962889
294	0.1914001
296	0.1085603
298	0.1509675
300	0.1395608
302	0.1133221
304	0.1983504
306	0.0948385
308	0.2317401
310	0.1025977
312	0.1659555
314	0.1565162
316	0.1081602
318	0.2432791
320	0.1072714
322	0.1730942
324	0.1841101
326	0.1112435
328	0.2496278
330	0.1405314
332	0.1365769
334	0.2679547
336	0.1282782
338	0.167632
340	0.2589165
342	0.1291791
344	0.1898209
346	0.2580616
348	0.134187
350	0.1944397
352	0.2730306
354	0.1421013
356	0.1828595
358	0.2986196
360	0.1578325
362	0.1630951
364	0.3064361
366	0.1921789
368	0.1470269
370	0.257848
372	0.259693
374	0.1493155
376	0.1864548
378	0.3182434
380	0.192549
382	0.1504583
384	0.2455459
386	0.2978182
388	0.1682899
390	0.1649464
392	0.2887082
394	0.2734401
396	0.1637577
398	0.1767437
400	0.3059518
402	0.2735999
404	0.1689823
406	0.179631
408	0.3022315
410	0.2999626
412	0.1840099
414	0.1758532
416	0.2745396
418	0.3428162
420	0.2174952
422	0.1751304
424	0.2306899
426	0.3568103
428	0.2878049
430	0.1946901
432	0.1971658
434	0.294007
436	0.3754265
438	0.2638249
440	0.2003445
442	0.2246761
444	0.3370395
446	0.3893197
448	0.2759164
450	0.2192896
452	0.2459779
454	0.3567586
456	0.4272799
458	0.3220506
460	0.2506264
462	0.2597832
464	0.349699
466	0.4607007
468	0.4029588
470	0.3034767
472	0.2768761
474	0.3261194
476	0.4437447
478	0.5019684
480	0.4089297
482	0.3290917
484	0.3210295
486	0.3862286
488	0.5074495
490	0.5562284
492	0.4634787
494	0.3787078
496	0.3621103
498	0.412947
500	0.5278765
502	0.6145546
504	0.5496967
506	0.4409607
508	0.3871278
510	0.4026957
512	0.4893558
514	0.6201109
516	0.657197
518	0.54536
520	0.4348224
522	0.3916248
524	0.417621
526	0.5166898
528	0.6608831
530	0.69374
532	0.5619328
534	0.4359649
536	0.3813962
538	0.395289
540	0.4821139
542	0.6391972
544	0.7386277
546	0.6257369
548	0.4649652
550	0.3758971
552	0.3576697
554	0.4055991
556	0.5317144
558	0.7099698
560	0.7431228
562	0.5749749
564	0.424076
566	0.3546959
568	0.3493847
570	0.4053174
572	0.5371772
574	0.7239521
576	0.7798901
578	0.6229133
580	0.4626725
582	0.3779335
584	0.3564613
586	0.390177
588	0.4882428
590	0.6577305
592	0.8094895
594	0.7574549
596	0.5806355
598	0.4463607
600	0.3807798
602	0.3701367
604	0.4103318
606	0.5108502
608	0.6760244
610	0.8259111
612	0.7920307
614	0.6236342
616	0.4806193
618	0.4017341
620	0.376001
622	0.3969587
624	0.4678919
626	0.59874
628	0.7686448
630	0.8569665
632	0.7638776
634	0.6015356
636	0.4792888
638	0.4111542
640	0.3894279
642	0.4087005
644	0.4726655
646	0.5900014
648	0.749841
650	0.864482
652	0.8175145
654	0.6590866
656	0.5112294
658	0.4161064
660	0.368161
662	0.3580995
664	0.3839454
666	0.452463
668	0.5760262
670	0.746718
672	0.8632303
674	0.7867438
676	0.5987131
678	0.4422736
680	0.3464979
682	0.2966911
684	0.2797846
686	0.291252
688	0.3352459
690	0.4268918
692	0.5851678
694	0.7834967
696	0.8462715
698	0.6787906
700	0.4769741
702	0.3439346
704	0.2696059
706	0.2324442
708	0.2204334
710	0.2302977
712	0.2650917
714	0.3366032
716	0.4675794
718	0.672262
720	0.8408186
722	0.7490768
724	0.5228879
726	0.3559985
728	0.2606543
730	0.209638
732	0.1851912
734	0.1787648
736	0.188338
738	0.2170211
740	0.2746919
742	0.3820451
744	0.5671768
746	0.7882828
748	0.7981319
750	0.5751826
752	0.3779456
754	0.2627024
756	0.199797
758	0.1662248
760	0.1504039
762	0.1473969
764	0.1563132
766	0.1798438
768	0.2257296
770	0.310721
772	0.4644168
774	0.6954179
776	0.8232455
778	0.6495067
780	0.4212807
782	0.2785795
784	0.2002395
786	0.1572219
788	0.1339124
790	0.1229113
792	0.1211044
794	0.1280071
796	0.1455205
798	0.1789497
800	0.239952
802	0.3523155
804	0.5491036
806	0.7787834
808	0.7558451
810	0.5133723
812	0.3245185
814	0.2187497
816	0.1609521
818	0.1285494
820	0.110464
822	0.1014417
824	0.0991687
826	0.1030918
828	0.1143371
830	0.1357304
832	0.1736076
834	0.2413712
836	0.3654946
838	0.5776865
840	0.7890358
842	0.7068738
844	0.4619156
846	0.2911886
848	0.1970698
850	0.1451016
852	0.1153188
854	0.0979969
856	0.0884334
858	0.0843637
860	0.0848697
862	0.0900356
864	0.1009449
866	0.1201553
868	0.1529272
870	0.2100138
872	0.3130483
874	0.4955976
876	0.7306155
878	0.7538327
880	0.5248919
882	0.3276298
884	0.2147921
886	0.152496
888	0.1166018
890	0.0951778
892	0.0822525
894	0.0748135
896	0.071351
898	0.0712178
900	0.0743798
902	0.0814012
904	0.0936599
906	0.1139142
908	0.1476033
910	0.2057128
912	0.3102008
914	0.494179
916	0.7240166
918	0.7319711
920	0.5022334
922	0.31146
924	0.2029556
926	0.1428698
928	0.108046
930	0.0868998
932	0.0736977
934	0.0654896
936	0.0607166
938	0.0585732
940	0.0587197
942	0.0611705
944	0.0662981
946	0.074953
948	0.0887662
950	0.1108156
952	0.1470751
954	0.2096067
956	0.3221798
958	0.5158165
960	0.7299043
962	0.690981
964	0.4606136
966	0.2861723
968	0.1877366
970	0.1326187
972	0.1001828
974	0.0801205
976	0.0672669
978	0.0589168
980	0.0535938
982	0.0504779
984	0.0491342
986	0.0493814
988	0.0512426
990	0.05495
992	0.0610067
994	0.0703116
996	0.0845312
998	0.1066744
1000	0.1424724
1002	0.2032526
1004	0.3108598
1006	0.4942253
1008	0.7037968
1010	0.6878542
1012	0.4700787
1014	0.2934784
1016	0.191441
1018	0.1338128
1020	0.0997151
1022	0.0784649
1024	0.0646542
1026	0.0554267
1028	0.049201
1030	0.0450683
1032	0.0424988
1034	0.0411485
1036	0.0408531
1038	0.0416497
1040	0.0436208
1042	0.0469835
1044	0.0521397
1046	0.0597822
1048	0.0711012
1050	0.0881979
1052	0.1149528
1054	0.1588659
1056	0.2347928
1058	0.3692236
1060	0.5768451
1062	0.7161542
1064	0.5793015
1066	0.3677625
1068	0.2305213
1070	0.1535024
1072	0.1092513
1074	0.0824023
1076	0.0652462
1078	0.0538189
1080	0.0459897
1082	0.040526
1084	0.0367076
1086	0.0340972
1088	0.0324273
1090	0.0315403
1092	0.0313563
1094	0.0318583
1096	0.0330889
1098	0.0351579
1100	0.0382641
1102	0.0427367
1104	0.0491134
1106	0.0582874
1108	0.071794
1110	0.0923954
1112	0.1253255
1114	0.1809682
1116	0.2796652
1118	0.4503168
1120	0.6544325
1122	0.6501525
1124	0.441983
1126	0.2714309
1128	0.1737004
1130	0.1189331
1132	0.0866289
1134	0.0664466
1136	0.0531952
1138	0.0441439
1140	0.037776
1142	0.0332068
1144	0.0298975
1146	0.0275099
1148	0.025828
1150	0.0247136
1152	0.0240813
1154	0.0238848
1156	0.0241096
1158	0.0247705
1160	0.0259143
1162	0.0276265
1164	0.0300456
1166	0.0333881
1168	0.0379919
1170	0.0443955
1172	0.0534841
1174	0.0667741
1176	0.0870011
1178	0.1193647
1180	0.174218
1182	0.2719607
1184	0.440021
1186	0.6338157
1188	0.6185315
1190	0.41837
1192	0.2580299
1194	0.1659038
1196	0.1138838
1198	0.0829763
1200	0.0635294
1202	0.0506653
1204	0.0418028
1206	0.0354994
1208	0.0309064
1210	0.0275043
1212	0.0249628
1214	0.0230653
1216	0.0216678
1218	0.0206737
1220	0.0200191
1222	0.0196639
1224	0.0195864
1226	0.0197807
1228	0.020256
1230	0.0210374
1232	0.0221688
1234	0.0237185
1236	0.0257883
1238	0.0285282
1240	0.0321811
1242	0.0373364
1244	0.044324
1246	0.0540211
1248	0.0678833
1250	0.08843
1252	0.1202063
1254	0.1716386
1256	0.2578168
1258	0.3983268
1260	0.5746832
1262	0.6366321
1264	0.502272
1266	0.3361357
1268	0.2230092
1270	0.1546017
1272	0.1127772
1274	0.0861181
1276	0.0683617
1278	0.0560662
1280	0.0472717
1282	0.0408159
1284	0.0359793
1286	0.0323023
1288	0.0294816
1290	0.0273121
1292	0.0256524
1294	0.0244039
1296	0.0234977
1298	0.0228862
1300	0.0225378
1302	0.022434
1304	0.0225667
1306	0.0229326
1308	0.0235418
1310	0.0244236
1312	0.0256126
1314	0.0271592
1316	0.0291337
1318	0.0316337
1320	0.0347949
1322	0.0388069
1324	0.0439395
1326	0.050583
1328	0.059314
1330	0.0710056
1332	0.0870131
1334	0.1094975
1336	0.1419584
1338	0.1900508
1340	0.2623082
1342	0.3681527
1344	0.5033733
1346	0.6138881
1348	0.6090907
1350	0.4958966
1352	0.3652175
1354	0.2641891
1356	0.1948953
1358	0.1482848
1360	0.1164447
1362	0.0941314
1364	0.0780683
1366	0.0662178
1368	0.0572864
1370	0.0504331
1372	0.0450975
1374	0.0408969
1376	0.0375646
1378	0.0348565
1380	0.0324894
1382	0.0305979
1384	0.0290991
1386	0.0279316
1388	0.0270506
1390	0.0264235
1392	0.026028
1394	0.0258498
1396	0.0258821
1398	0.0261247
1400	0.0265842
1402	0.0272744
1404	0.0282169
1406	0.0294431
1408	0.0309958
1410	0.0329329
1412	0.0353315
1414	0.0382964
1416	0.0419686
1418	0.0465408
1420	0.05228
1422	0.0595633
1424	0.0689282
1426	0.0811634
1428	0.0974418
1430	0.1195405
1432	0.1501732
1434	0.1934262
1436	0.2550179
1438	0.3410225
1440	0.4507773
1442	0.5585161
1444	0.6041118
1446	0.5508459
1448	0.4407742
1450	0.3323157
1452	0.2483567
1454	0.1884519
1456	0.1463904
1458	0.1165581
1460	0.0948546
1462	0.0787844
1464	0.0666833
1466	0.0573984
1468	0.0501547
1470	0.0444213
1472	0.0398274
1474	0.0361087
1476	0.0330738
1478	0.0305821
1480	0.0285285
1482	0.0268332
1484	0.0254365
1486	0.0242922
1488	0.0233645
1490	0.0226263
1492	0.0220573
1494	0.0216415
1496	0.021368
1498	0.0212295
1500	0.0212223
1502	0.0213457
1504	0.0216024
1506	0.0219982
1508	0.0225427
1510	0.0232492
1512	0.0241363
1514	0.0252281
1516	0.0265561
1518	0.0281609
1520	0.0300956
1522	0.0324289
1524	0.0352512
1526	0.0386823
1528	0.0428829
1530	0.0480717
1532	0.0545495
1534	0.0627421
1536	0.0732568
1538	0.0869783
1540	0.1052157
1542	0.1299293
1544	0.1640315
1546	0.211688
1548	0.2780513
1550	0.3664958
1552	0.4690862
1554	0.5510923
1556	0.561214
1558	0.4912862
1560	0.3884752
1562	0.2946747
1564	0.2228997
1566	0.1711699
1568	0.1342638
1570	0.1076622
1572	0.0881447
1574	0.0735414
1576	0.0624043
1578	0.0537597
1580	0.0469423
1582	0.0414894
1584	0.0370738
1586	0.0334597
1588	0.0304742
1590	0.0279888
1592	0.0259069
1594	0.024154
1596	0.0226727
1598	0.0214185
1600	0.0203564
1602	0.0194586
1604	0.0187031
1606	0.0180722
1608	0.0175521
1610	0.0171317
1612	0.0168024
1614	0.0165575
1616	0.0163922
1618	0.0163032
1620	0.0162887
1622	0.0163481
1624	0.0164824
1626	0.0166935
1628	0.0169853
1630	0.0173628
1632	0.0178325
1634	0.0184039
1636	0.0190883
1638	0.0199001
1640	0.020857
1642	0.021982
1644	0.0233025
1646	0.0248538
1648	0.0266805
1650	0.0288393
1652	0.0314034
1654	0.0344676
1656	0.0381568
1658	0.0426385
1660	0.0481383
1662	0.0549663
1664	0.0635547
1666	0.0745161
1668	0.0887319
1670	0.1074854
1672	0.1326479
1674	0.166917
1676	0.213929
1678	0.2776962
1680	0.359581
1682	0.4499827
1684	0.5178939
1686	0.5234206
1688	0.462384
1690	0.3721787
1692	0.2873315
1694	0.2203553
1696	0.1708387
1698	0.1348164
1700	0.1084663
1702	0.088913
1704	0.0741524
1706	0.0628144
1708	0.0539591
1710	0.046937
1712	0.0412923
1714	0.0366976
1716	0.0329163
1718	0.0297737
1720	0.0271393
1722	0.024914
1724	0.0230218
1726	0.0214036
1728	0.0200131
1730	0.0188135
1732	0.0177754
1734	0.0168753
1736	0.0160938
1738	0.0154155
1740	0.0148275
1742	0.0143189
1744	0.0138813
1746	0.0135077
1748	0.0131922
1750	0.0129299
1752	0.0127172
1754	0.0125509
1756	0.0124284
1758	0.0123481
1760	0.0123087
1762	0.0123097
1764	0.0123509
1766	0.0124328
1768	0.0125563
1770	0.0127228
1772	0.0129354
1774	0.0131975
1776	0.0135112
1778	0.0138807
1780	0.0143114
1782	0.0148099
1784	0.0153838
1786	0.0160425
1788	0.0167974
1790	0.0176623
1792	0.0186539
1794	0.0197928
1796	0.0211043
1798	0.0226195
1800	0.0243774
1802	0.0264266
1804	0.0288298
1806	0.0316668
1808	0.0350411
1810	0.0390888
1812	0.0439915
1814	0.0499918
1816	0.0574223
1818	0.0667435
1820	0.0786023
1822	0.0939162
1824	0.1139932
1826	0.1406823
1828	0.1764979
1830	0.2244889
1832	0.2871342
1834	0.3627673
1836	0.4382979
1838	0.4851096
1840	0.4765412
1842	0.4177732
1844	0.3393942
1846	0.2663238
1848	0.2076642
1850	0.163303
1852	0.1303256
1854	0.1057463
1856	0.0872184
1858	0.0730466
1860	0.0620389
1862	0.0533593
1864	0.0464201
1866	0.0407997
1868	0.0361943
1870	0.0323802
1872	0.0291915
1874	0.0265022
1876	0.0242162
1878	0.0222595
1880	0.020574
1882	0.019114
1884	0.017843
1886	0.0167316
1888	0.0157559
1890	0.0148966
1892	0.0141374
1894	0.0134653
1896	0.0128693
1898	0.0123401
1900	0.0118701
1902	0.011453
1904	0.0110828
1906	0.0107551
1908	0.0104656
1910	0.010211
1912	0.0099884
1914	0.0097954
1916	0.00963
1918	0.0094906
1920	0.0093757
1922	0.0092842
1924	0.0092152
1926	0.0091679
1928	0.0091418
1930	0.0091366
1932	0.009152
1934	0.0091883
1936	0.0092458
1938	0.0093248
1940	0.0094262
1942	0.0095509
1944	0.0097
1946	0.0098747
1948	0.0100767
1950	0.0103079
1952	0.0105708
1954	0.010868
1956	0.0112027
1958	0.0115787
1960	0.0120003
1962	0.0124725
1964	0.0130016
1966	0.0135946
1968	0.0142602
1970	0.0150081
1972	0.0158509
1974	0.0168026
1976	0.0178804
1978	0.0191054
1980	0.0205031
1982	0.0221048
1984	0.0239497
1986	0.0260872
1988	0.0285784
1990	0.0315026
1992	0.0349612
1994	0.0390861
1996	0.0440499
1998	0.0500851
2000	0.0575021
2002	0.0667266
2004	0.0783436
2006	0.0931662
2008	0.1123213
2010	0.1373338
2012	0.1701873
2014	0.2130774
2016	0.2674777
2018	0.3314211
2020	0.394819
2022	0.4370384
2024	0.4376129
2026	0.3960666
2028	0.3325138
2030	0.26796
2032	0.212914
2034	0.1695187
2036	0.1363245
2038	0.1110903
2040	0.0918087
2042	0.0769137
2044	0.0652639
2046	0.0560299
2048	0.0486184
2050	0.0425963
2052	0.0376499
2054	0.0335435
2056	0.0301031
2058	0.0271951
2060	0.0247183
2062	0.0225926
2064	0.0207571
2066	0.0191624
2068	0.0177691
2070	0.0165461
2072	0.0154677
2074	0.0145128
2076	0.0136639
2078	0.0129069
2080	0.0122294
2082	0.0116215
2084	0.0110746
2086	0.0105817
2088	0.0101366
2090	0.0097341
2092	0.0093697
2094	0.0090395
2096	0.0087399
2098	0.0084682
2100	0.0082218
2102	0.0079982
2104	0.0077957
2106	0.0076127
2108	0.0074476
2110	0.0072991
2112	0.0071663
2114	0.0070481
2116	0.0069435
2118	0.0068518
2120	0.0067724
2122	0.0067046
2124	0.0066481
2126	0.0066024
2128	0.0065673
2130	0.0065425
2132	0.0065281
2134	0.0065236
2136	0.0065292
2138	0.0065447
2140	0.0065703
2142	0.0066059
2144	0.006652
2146	0.0067087
2148	0.0067763
2150	0.0068553
2152	0.0069464
2154	0.0070499
2156	0.0071664
2158	0.0072968
2160	0.0074419
2162	0.0076025
2164	0.00778
2166	0.0079756
2168	0.0081908
2170	0.0084272
2172	0.0086869
2174	0.008972
2176	0.0092848
2178	0.0096285
2180	0.0100062
2182	0.0104219
2184	0.0108798
2186	0.0113849
2188	0.0119431
2190	0.0125614
2192	0.0132474
2194	0.0140108
2196	0.014863
2198	0.0158172
2200	0.0168896
2202	0.0180996
2204	0.0194705
2206	0.0210302
2208	0.0228143
2210	0.0248656
2212	0.0272379
2214	0.0299993
2216	0.033237
2218	0.0370613
2220	0.0416169
2222	0.0470913
2224	0.0537339
2226	0.061878
2228	0.0719685
2230	0.0846097
2232	0.1006101
2234	0.1210393
2236	0.1472355
2238	0.1807052
2240	0.2226035
2242	0.2724441
2244	0.3255746
2246	0.3706959
2248	0.3920292
2250	0.3798895
2252	0.3398054
2254	0.2871492
2256	0.2352506
2258	0.1906045
2260	0.1546032
2262	0.1263683
2264	0.1043869
2266	0.0872322
2268	0.0737366
2270	0.0630145
2272	0.0543997
2274	0.0474044
2276	0.0416629
2278	0.0369046
2280	0.0329236
2282	0.029565
2284	0.0267081
2286	0.0242609
2288	0.0221501
2290	0.0203179
2292	0.0187191
2294	0.0173159
2296	0.0160786
2298	0.0149824
2300	0.0140074
2302	0.0131362
2304	0.0123554
2306	0.0116533
2308	0.0110199
2310	0.0104468
2312	0.009927
2314	0.0094543
2316	0.0090235
2318	0.00863
2320	0.0082699
2322	0.0079398
2324	0.0076367
2326	0.0073581
2328	0.0071015
2330	0.0068651
2332	0.006647
2334	0.0064457
2336	0.0062598
2338	0.0060879
2340	0.0059289
2342	0.0057819
2344	0.0056459
2346	0.0055202
2348	0.0054041
2350	0.005297
2352	0.0051982
2354	0.0051073
2356	0.0050239
2358	0.0049474
2360	0.0048775
2362	0.004814
2364	0.0047565
2366	0.0047048
2368	0.0046585
2370	0.0046175
2372	0.0045815
2374	0.0045504
2376	0.0045241
2378	0.0045025
2380	0.0044855
2382	0.004473
2384	0.004465
2386	0.0044613
2388	0.0044621
2390	0.0044672
2392	0.0044767
2394	0.0044907
2396	0.0045091
2398	0.004532
2400	0.0045595