File: data/filmetrics/reflectance_sio2.txt.tsv
Wavelength (nm)	Reflectance
200	0.1174196
202	0.1067353
204	0.0956626
206	0.0844169
208	0.0732112
210	0.062253
212	0.0499607
214	0.0386295
216	0.0285598
218	0.0199107
220	0.0127453
222	0.0072062
224	0.0032461
226	0.0008673
228	6.2e-06
230	0.000571
232	0.0024286
234	0.0054538
236	0.0094912
238	0.014386
240	0.0200069
242	0.0261637
244	0.0327618
246	0.0396664
248	0.0467606
250	0.053947
252	0.0610875
254	0.0681491
256	0.0750492
258	0.0817323
260	0.0881624
262	0.0942907
264	0.1000955
266	0.1055462
268	0.1106281
270	0.1153339
272	0.119654
274	0.1235866
276	0.1271326
278	0.1302976
280	0.1330834
282	0.1354953
284	0.13754
286	0.1392362
288	0.1405975
290	0.1416248
292	0.1423291
294	0.1427216
296	0.1428308
298	0.142672
300	0.1422421
302	0.1415532
304	0.1406179
306	0.1394592
308	0.1380907
310	0.1365146
312	0.1347664
314	0.1328361
316	0.1307358
318	0.128477
320	0.1260715
322	0.1235564
324	0.1209179
326	0.11818
328	0.1153539
330	0.1124368
332	0.1094391
334	0.1063707
336	0.1032546
338	0.1001002
340	0.0969034
342	0.0936729
344	0.0904174
346	0.0871451
348	0.0838642
350	0.0805824
352	0.077332
354	0.0740946
356	0.0708771
358	0.0676857
360	0.0645268
362	0.0614062
364	0.0583296
366	0.0553128
368	0.0523603
370	0.0494652
372	0.0466321
374	0.0438647
376	0.0411763
378	0.0385691
380	0.0360366
382	0.0335816
384	0.0312065
386	0.0289136
388	0.0267048
390	0.0245818
392	0.0225461
394	0.0205988
396	0.018741
398	0.0169733
400	0.0152962
402	0.0137202
404	0.0122339
406	0.0108373
408	0.00953
410	0.0083117
412	0.0071818
414	0.0061394
416	0.0051838
418	0.0043138
420	0.0035284
422	0.0028263
424	0.0022061
426	0.0016679
428	0.0012093
430	0.000827
432	0.0005194
434	0.0002848
436	0.0001209
438	2.65e-05
440	4e-07
442	3.98e-05
444	0.000142
446	0.0003058
448	0.0005297
450	0.0008113
452	0.0011487
454	0.0015399
456	0.0019828
458	0.0024756
460	0.0030162
462	0.0035995
464	0.0042264
466	0.0048968
468	0.0056091
470	0.0063598
472	0.0071429
474	0.0079606
476	0.0088109
478	0.0096923
480	0.0106031
482	0.0115417
484	0.0125064
486	0.0134958
488	0.0145082
490	0.0155422
492	0.0165965
494	0.0176694
496	0.0187598
498	0.0198663
500	0.0209876
502	0.022118
504	0.0232608
506	0.0244172
508	0.0255859
510	0.0267635
512	0.0279491
514	0.0291417
516	0.0303382
518	0.0315379
520	0.032742
522	0.0339531
524	0.0351667
526	0.0363802
528	0.0375931
530	0.0388063
532	0.0400192
534	0.0412312
536	0.0424428
538	0.0436534
540	0.0448608
542	0.0460623
544	0.0472599
546	0.0484531
548	0.0496415
550	0.0508245
552	0.0520017
554	0.0531727
556	0.0543372
558	0.0554947
560	0.0566449
562	0.0577875
564	0.0589222
566	0.0600487
568	0.0611666
570	0.0622758
572	0.063376
574	0.064467
576	0.0655485
578	0.0666204
580	0.0676825
582	0.068736
584	0.0697797
586	0.0708126
588	0.0718343
590	0.0728454
592	0.0738459
594	0.0748356
596	0.0758145
598	0.0767825
600	0.0777394
602	0.0786886
604	0.0796269
606	0.0805527
608	0.0814655
610	0.0823672
612	0.0832617
614	0.0841453
616	0.0850157
618	0.0858726
620	0.0867182
622	0.0875526
624	0.0883756
626	0.0891901
628	0.0899963
630	0.0907916
632	0.0915761
634	0.0923497
636	0.0931095
638	0.0938551
640	0.0945897
642	0.09532
644	0.0960398
646	0.0967454
648	0.0974368
650	0.0981173
652	0.0987947
654	0.0994618
656	0.1001186
658	0.1007652
660	0.1014017
662	0.1020197
664	0.1026275
666	0.1032293
668	0.1038256
670	0.104412
672	0.1049887
674	0.1055558
676	0.1061133
678	0.1066613
680	0.1071999
682	0.1077195
684	0.1082296
686	0.1087352
688	0.1092367
690	0.1097292
692	0.1102127
694	0.1106875
696	0.1111535
698	0.1116107
700	0.1120595
702	0.1124997
704	0.1129315
706	0.1133549
708	0.1137701
710	0.1141772
712	0.1145761
714	0.114967
716	0.11535
718	0.1157252
720	0.1160926
722	0.1164463
724	0.1167923
726	0.1171306
728	0.1174614
730	0.1177848
732	0.1181071
734	0.1184223
736	0.1187303
738	0.1190313
740	0.1193254
742	0.1196126
744	0.119893
746	0.1201667
748	0.1204337
750	0.1206942
752	0.1209483
754	0.1211959
756	0.1214372
758	0.1216722
760	0.121901
762	0.1221308
764	0.1223546
766	0.1225725
768	0.1227846
770	0.122991
772	0.1231844
774	0.1233722
776	0.1235544
778	0.123731
780	0.1239021
782	0.1240679
784	0.1242283
786	0.1243834
788	0.1245333
790	0.1246781
792	0.1248178
794	0.1249524
796	0.1250821
798	0.125207
800	0.125327
802	0.1254422
804	0.1255527
806	0.1256586
808	0.1257599
810	0.1258567
812	0.1259569
814	0.1260528
816	0.1261443
818	0.1262316
820	0.1263148
822	0.1263858
824	0.1264526
826	0.1265154
828	0.1265741
830	0.1266289
832	0.1266879
834	0.1267431
836	0.1267946
838	0.1268423
840	0.1268864
842	0.1269185
844	0.1269471
846	0.1269721
848	0.1269936
850	0.1270116
852	0.1270262
854	0.1270374
856	0.1270453
858	0.1270499
860	0.1270513
862	0.1270579
864	0.1270615
866	0.127062
868	0.1270595
870	0.1270539
872	0.1270369
874	0.1270169
876	0.1269941
878	0.1269684
880	0.1269398
882	0.1269172
884	0.1268918
886	0.1268638
888	0.1268332
890	0.1268
892	0.1267642
894	0.1267259
896	0.1266851
898	0.1266419
900	0.1265963
902	0.1265395
904	0.1264803
906	0.1264188
908	0.126355
910	0.1262889
912	0.1262294
914	0.1261678
916	0.1261041
918	0.1260382
920	0.1259702
922	0.1258913
924	0.1258103
926	0.1257274
928	0.1256424
930	0.1255555
932	0.1254757
934	0.1253939
936	0.1253104
938	0.125225
940	0.1251378
942	0.1250488
944	0.1249582
946	0.1248658
948	0.1247717
950	0.124676
952	0.1245696
954	0.1244616
956	0.124352
958	0.1242408
960	0.1241281
962	0.1240229
964	0.1239162
966	0.1238081
968	0.1236986
970	0.1235876
972	0.1234753
974	0.1233616
976	0.1232465
978	0.1231301
980	0.1230124
982	0.1228843
984	0.122755
986	0.1226244
988	0.1224926
990	0.1223595
992	0.1222345
994	0.1221082
996	0.1219808
998	0.1218523
1000	0.1217227
1002	0.121592
1004	0.1214603
1006	0.1213275
1008	0.1211937
1010	0.1210588
1012	0.120923
1014	0.1207862
1016	0.1206485
1018	0.1205098
1020	0.1203702
1022	0.1202205
1024	0.1200699
1026	0.1199185
1028	0.1197662
1030	0.1196131
1032	0.1194683
1034	0.1193227
1036	0.1191762
1038	0.1190291
1040	0.1188811
1042	0.1187324
1044	0.1185829
1046	0.1184328
1048	0.1182819
1050	0.1181303
1052	0.117978
1054	0.1178251
1056	0.1176715
1058	0.1175173
1060	0.1173625
1062	0.117207
1064	0.117051
1066	0.1168943
1068	0.1167371
1070	0.1165793
1072	0.1164118
1074	0.1162439
1076	0.1160754
1078	0.1159063
1080	0.1157368
1082	0.1155759
1084	0.1154145
1086	0.1152526
1088	0.1150903
1090	0.1149275
1092	0.1147643
1094	0.1146007
1096	0.1144366
1098	0.1142721
1100	0.1141072
1102	0.113942
1104	0.1137763
1106	0.1136103
1108	0.113444
1110	0.1132772
1112	0.1131102
1114	0.1129428
1116	0.1127751
1118	0.112607
1120	0.1124387
1122	0.1122701
1124	0.1121012
1126	0.111932
1128	0.1117625
1130	0.1115928
1132	0.1114138
1134	0.1112346
1136	0.1110552
1138	0.1108756
1140	0.1106958
1142	0.1105247
1144	0.1103534
1146	0.1101819
1148	0.1100102
1150	0.1098383
1152	0.1096662
1154	0.109494
1156	0.1093216
1158	0.1091491
1160	0.1089764
1162	0.1088035
1164	0.1086305
1166	0.1084574
1168	0.1082842
1170	0.1081109
1172	0.1079374
1174	0.1077638
1176	0.1075902
1178	0.1074164
1180	0.1072426
1182	0.1070687
1184	0.1068947
1186	0.1067206
1188	0.1065465
1190	0.1063723
1192	0.1061981
1194	0.1060238
1196	0.1058495
1198	0.1056751
1200	0.1055007
1202	0.1053175
1204	0.1051344
1206	0.1049512
1208	0.1047681
1210	0.104585
1212	0.1044105
1214	0.1042361
1216	0.1040617
1218	0.1038873
1220	0.1037129
1222	0.1035385
1224	0.1033641
1226	0.1031898
1228	0.1030155
1230	0.1028413
1232	0.1026671
1234	0.1024929
1236	0.1023188
1238	0.1021448
1240	0.1019708
1242	0.1017969
1244	0.101623
1246	0.1014492
1248	0.1012755
1250	0.1011018
1252	0.1009283
1254	0.1007548
1256	0.1005814
1258	0.1004081
1260	0.1002349
1262	0.1000618
1264	0.0998888
1266	0.0997159
1268	0.0995431
1270	0.0993704
1272	0.0991895
1274	0.0990086
1276	0.0988279
1278	0.0986473
1280	0.0984669
1282	0.098295
1284	0.0981232
1286	0.0979515
1288	0.09778
1290	0.0976087
1292	0.0974375
1294	0.0972664
1296	0.0970955
1298	0.0969247
1300	0.0967541
1302	0.0965836
1304	0.0964133
1306	0.0962432
1308	0.0960732
1310	0.0959033
1312	0.0957337
1314	0.0955642
1316	0.0953949
1318	0.0952257
1320	0.0950568
1322	0.094888
1324	0.0947194
1326	0.094551
1328	0.0943827
1330	0.0942147
1332	0.0940468
1334	0.0938791
1336	0.0937116
1338	0.0935443
1340	0.0933773
1342	0.0932103
1344	0.0930436
1346	0.0928771
1348	0.0927108
1350	0.0925447
1352	0.0923708
1354	0.0921971
1356	0.0920236
1358	0.0918504
1360	0.0916774
1362	0.0915126
1364	0.091348
1366	0.0911836
1368	0.0910195
1370	0.0908556
1372	0.0906919
1374	0.0905284
1376	0.0903651
1378	0.0902021
1380	0.0900393
1382	0.0898767
1384	0.0897143
1386	0.0895522
1388	0.0893903
1390	0.0892287
1392	0.0890672
1394	0.088906
1396	0.0887451
1398	0.0885843
1400	0.0884238
1402	0.0882636
1404	0.0881036
1406	0.0879438
1408	0.0877843
1410	0.087625
1412	0.0874582
1414	0.0872916
1416	0.0871254
1418	0.0869594
1420	0.0867937
1422	0.0866359
1424	0.0864784
1426	0.0863211
1428	0.086164
1430	0.0860073
1432	0.0858507
1434	0.0856945
1436	0.0855384
1438	0.0853827
1440	0.0852271
1442	0.0850719
1444	0.0849169
1446	0.0847621
1448	0.0846076
1450	0.0844534
1452	0.0842994
1454	0.0841456
1456	0.0839922
1458	0.083839
1460	0.083686
1462	0.0835333
1464	0.0833809
1466	0.0832287
1468	0.0830768
1470	0.0829251
1472	0.0827738
1474	0.0826226
1476	0.0824718
1478	0.0823212
1480	0.0821708
1482	0.0820134
1484	0.0818562
1486	0.0816993
1488	0.0815427
1490	0.0813864
1492	0.0812377
1494	0.0810893
1496	0.0809411
1498	0.0807932
1500	0.0806456
1502	0.0804982
1504	0.0803511
1506	0.0802042
1508	0.0800577
1510	0.0799114
1512	0.0797653
1514	0.0796196
1516	0.0794741
1518	0.0793289
1520	0.0791839
1522	0.0790392
1524	0.0788948
1526	0.0787506
1528	0.0786067
1530	0.0784631
1532	0.0783127
1534	0.0781625
1536	0.0780126
1538	0.077863
1540	0.0777136
1542	0.0775717
1544	0.07743
1546	0.0772886
1548	0.0771475
1550	0.0770066
1552	0.076866
1554	0.0767257
1556	0.0765856
1558	0.0764458
1560	0.0763063
1562	0.076167
1564	0.076028
1566	0.0758893
1568	0.0757509
1570	0.0756127
1572	0.0754748
1574	0.0753371
1576	0.0751998
1578	0.0750627
1580	0.0749258
1582	0.0747824
1584	0.0746392
1586	0.0744964
1588	0.0743538
1590	0.0742115
1592	0.0740763
1594	0.0739414
1596	0.0738068
1598	0.0736724
1600	0.0735383
1602	0.0734045
1604	0.0732709
1606	0.0731376
1608	0.0730046
1610	0.0728718
1612	0.0727393
1614	0.0726071
1616	0.0724751
1618	0.0723434
1620	0.0722119
1622	0.0720808
1624	0.0719499
1626	0.0718192
1628	0.0716888
1630	0.0715587
1632	0.0714222
1634	0.071286
1636	0.0711501
1638	0.0710145
1640	0.0708792
1642	0.0707507
1644	0.0706225
1646	0.0704945
1648	0.0703668
1650	0.0702394
1652	0.0701122
1654	0.0699853
1656	0.0698586
1658	0.0697322
1660	0.0696061
1662	0.0694802
1664	0.0693546
1666	0.0692293
1668	0.0691042
1670	0.0689794
1672	0.0688483
1674	0.0687176
1676	0.0685872
1678	0.068457
1680	0.0683271
1682	0.0682039
1684	0.0680809
1686	0.0679581
1688	0.0678357
1690	0.0677135
1692	0.0675915
1694	0.0674698
1696	0.0673484
1698	0.0672272
1700	0.0671062
1702	0.0669793
1704	0.0668525
1706	0.0667261
1708	0.0666
1710	0.0664741
1712	0.0663547
1714	0.0662356
1716	0.0661167
1718	0.0659981
1720	0.0658797
1722	0.0657616
1724	0.0656437
1726	0.0655261
1728	0.0654087
1730	0.0652916
1732	0.0651747
1734	0.0650581
1736	0.0649417
1738	0.0648256
1740	0.0647097
1742	0.0645879
1744	0.0644664
1746	0.0643452
1748	0.0642242
1750	0.0641035
1752	0.0639892
1754	0.063875
1756	0.0637611
1758	0.0636475
1760	0.0635341
1762	0.0634209
1764	0.063308
1766	0.0631953
1768	0.0630829
1770	0.0629707
1772	0.0628528
1774	0.0627351
1776	0.0626177
1778	0.0625005
1780	0.0623836
1782	0.0622729
1784	0.0621624
1786	0.0620522
1788	0.0619422
1790	0.0618324
1792	0.0617229
1794	0.0616136
1796	0.0615045
1798	0.0613957
1800	0.0612871
1802	0.0611729
1804	0.0610589
1806	0.0609452
1808	0.0608318
1810	0.0607186
1812	0.0606114
1814	0.0605045
1816	0.0603978
1818	0.0602913
1820	0.0601851
1822	0.060079
1824	0.0599733
1826	0.0598677
1828	0.0597624
1830	0.0596573
1832	0.0595467
1834	0.0594364
1836	0.0593263
1838	0.0592164
1840	0.0591068
1842	0.0590031
1844	0.0588996
1846	0.0587964
1848	0.0586933
1850	0.0585905
1852	0.0584879
1854	0.0583856
1856	0.0582834
1858	0.0581815
1860	0.0580798
1862	0.0579727
1864	0.0578659
1866	0.0577593
1868	0.057653
1870	0.0575469
1872	0.0574465
1874	0.0573464
1876	0.0572465
1878	0.0571468
1880	0.0570473
1882	0.056948
1884	0.056849
1886	0.0567502
1888	0.0566515
1890	0.0565531
1892	0.0564495
1894	0.0563461
1896	0.0562429
1898	0.0561399
1900	0.0560372
1902	0.0559401
1904	0.0558432
1906	0.0557465
1908	0.0556501
1910	0.0555538
1912	0.0554524
1914	0.0553512
1916	0.0552502
1918	0.0551495
1920	0.055049
1922	0.054954
1924	0.0548592
1926	0.0547647
1928	0.0546703
1930	0.0545762
1932	0.054477
1934	0.0543779
1936	0.0542792
1938	0.0541806
1940	0.0540822
1942	0.0539893
1944	0.0538966
1946	0.0538042
1948	0.0537119
1950	0.0536198
1952	0.0535279
1954	0.0534362
1956	0.0533448
1958	0.0532535
1960	0.0531624
1962	0.0530663
1964	0.0529705
1966	0.0528748
1968	0.0527794
1970	0.0526842
1972	0.0525943
1974	0.0525046
1976	0.0524151
1978	0.0523259
1980	0.0522368
1982	0.0521428
1984	0.052049
1986	0.0519554
1988	0.051862
1990	0.0517688
1992	0.0516809
1994	0.0515932
1996	0.0515057
1998	0.0514184
2000	0.0513312