File: data/filmetrics/reflectance_sio2_1000_au_35.txt.tsv
Wavelength (nm)	Reflectance
200	0.0789704
201	0.0590142
202	0.0850588
203	0.1441206
204	0.2134871
205	0.2750853
206	0.3196611
207	0.3445804
208	0.3496426
209	0.3345255
210	0.3001792
211	0.240415
212	0.1682622
213	0.102637
214	0.0685882
215	0.0817819
216	0.1346297
217	0.2049842
218	0.2721483
219	0.3242067
220	0.3564293
221	0.3679716
222	0.3592871
223	0.3311952
224	0.2855633
225	0.2265177
226	0.1637415
227	0.1107986
228	0.0835956
229	0.091908
230	0.1323321
231	0.1904408
232	0.2518307
233	0.3059531
234	0.3473709
235	0.3743424
236	0.3862805
237	0.383771
238	0.3671792
239	0.3370787
240	0.2948962
241	0.2442712
242	0.1906065
243	0.1426816
244	0.111006
245	0.1037526
246	0.1228649
247	0.1630347
248	0.2147123
249	0.2689191
250	0.3183435
251	0.3587801
252	0.3890292
253	0.4086445
254	0.4172698
255	0.4155974
256	0.4038725
257	0.3822788
258	0.3516342
259	0.3125524
260	0.2676164
261	0.2211056
262	0.1782033
263	0.1457869
264	0.129771
265	0.1332736
266	0.1550365
267	0.1904784
268	0.233437
269	0.2781482
270	0.3201123
271	0.3564494
272	0.3859983
273	0.4081498
274	0.4228089
275	0.4301101
276	0.4303067
277	0.423645
278	0.4102264
279	0.3902278
280	0.3639993
281	0.3322785
282	0.296169
283	0.2573569
284	0.2189208
285	0.1843639
286	0.1576271
287	0.1417553
288	0.1387741
289	0.1489258
290	0.1704433
291	0.200302
292	0.2349896
293	0.2711833
294	0.3063535
295	0.3386522
296	0.3664879
297	0.3896643
298	0.407963
299	0.4212865
300	0.4296194
301	0.4331481
302	0.4319705
303	0.4261987
304	0.4159361
305	0.4012872
306	0.3825
307	0.3597819
308	0.3335787
309	0.3045513
310	0.2736552
311	0.2422532
312	0.2119121
313	0.1845044
314	0.1619704
315	0.1460165
316	0.1379545
317	0.1383471
318	0.1469284
319	0.1625128
320	0.1837449
321	0.2087487
322	0.2358774
323	0.2635352
324	0.2905093
325	0.3158516
326	0.3388006
327	0.3591495
328	0.376585
329	0.3909394
330	0.4021692
331	0.4103066
332	0.4154076
333	0.4174814
334	0.4165817
335	0.4127627
336	0.4061274
337	0.3967194
338	0.3846127
339	0.3699083
340	0.3527783
341	0.3334601
342	0.3121597
343	0.2892507
344	0.2652202
345	0.240768
346	0.216595
347	0.1934836
348	0.1723452
349	0.1540999
350	0.1396793
351	0.1297567
352	0.1247047
353	0.1247158
354	0.1296877
355	0.1392828
356	0.1528745
357	0.1696942
358	0.1889107
359	0.2096917
360	0.2313681
361	0.2532193
362	0.2746055
363	0.2950665
364	0.3142495
365	0.332035
366	0.348301
367	0.3627563
368	0.3753333
369	0.3859997
370	0.3947482
371	0.4016324
372	0.4066332
373	0.4097711
374	0.4110748
375	0.410574
376	0.4082487
377	0.4040274
378	0.3981137
379	0.3905446
380	0.3813642
381	0.3706263
382	0.3583407
383	0.3445982
384	0.3295699
385	0.3134002
386	0.2962694
387	0.2783981
388	0.2599974
389	0.2413857
390	0.222961
391	0.2051133
392	0.1882588
393	0.1728243
394	0.1591856
395	0.1477111
396	0.1387979
397	0.1327012
398	0.1295833
399	0.1295018
400	0.1324006
401	0.1379567
402	0.1460732
403	0.1564463
404	0.1687266
405	0.1825387
406	0.1975026
407	0.2131857
408	0.2292386
409	0.2454172
410	0.2614504
411	0.2771066
412	0.2921952
413	0.306561
414	0.3199909
415	0.3324443
416	0.343888
417	0.3542744
418	0.3635722
419	0.3717629
420	0.3788387
421	0.3847003
422	0.3894137
423	0.3930285
424	0.395556
425	0.3970091
426	0.3973995
427	0.3967557
428	0.3950479
429	0.392289
430	0.3885493
431	0.3838455
432	0.378196
433	0.3716209
434	0.3641434
435	0.3557906
436	0.3464868
437	0.3363772
438	0.3255085
439	0.3139322
440	0.3017091
441	0.2890539
442	0.2759137
443	0.2623807
444	0.2485738
445	0.2345962
446	0.2204861
447	0.2064505
448	0.192626
449	0.1791551
450	0.1661843
451	0.1538717
452	0.1424201
453	0.1318835
454	0.1223849
455	0.1140342
456	0.1069246
457	0.1011298
458	0.0967021
459	0.0936706
460	0.0920382
461	0.0917742
462	0.0928373
463	0.0951697
464	0.0986963
465	0.1033279
466	0.1090157
467	0.1156106
468	0.1230236
469	0.131292
470	0.1401198
471	0.1493251
472	0.1588711
473	0.1686598
474	0.1785993
475	0.1886059
476	0.1986021
477	0.2085637
478	0.2187158
479	0.2287334
480	0.2385727
481	0.2481963
482	0.2575718
483	0.2666718
484	0.2754734
485	0.2839575
486	0.2921087
487	0.3008105
488	0.3094378
489	0.317731
490	0.325682
491	0.3332847
492	0.3405347
493	0.347429
494	0.3539667
495	0.3601473
496	0.3660779
497	0.3732999
498	0.3801343
499	0.3865814
500	0.3926424
501	0.3983178
502	0.4036196
503	0.4085516
504	0.4131182
505	0.4173246
506	0.4211618
507	0.4252727
508	0.4290346
509	0.4324138
510	0.4354183
511	0.4380571
512	0.4403397
513	0.4422766
514	0.443879
515	0.445159
516	0.4461755
517	0.4468551
518	0.4471476
519	0.4471241
520	0.4468038
521	0.4461501
522	0.4452405
523	0.4441019
524	0.442764
525	0.4412605
526	0.4396938
527	0.4380403
528	0.4359446
529	0.433226
530	0.4305233
531	0.4278936
532	0.4253986
533	0.4231042
534	0.4210805
535	0.4194008
536	0.4180823
537	0.4172686
538	0.4170391
539	0.4174724
540	0.4166344
541	0.416437
542	0.4170465
543	0.4185176
544	0.4208955
545	0.4242136
546	0.4284926
547	0.4337394
548	0.4399463
549	0.4470915
550	0.4551389
551	0.4640395
552	0.4718192
553	0.4802097
554	0.4892418
555	0.4988409
556	0.5089282
557	0.5194241
558	0.5302484
559	0.5413225
560	0.5525711
561	0.5639226
562	0.5753108
563	0.5866746
564	0.5969162
565	0.6056964
566	0.6143801
567	0.6229353
568	0.6313346
569	0.6395548
570	0.6475763
571	0.6553834
572	0.6629632
573	0.6703065
574	0.6774059
575	0.6842565
576	0.6908557
577	0.6969293
578	0.7021871
579	0.7072179
580	0.7120233
581	0.7165758
582	0.7209117
583	0.7250343
584	0.7289473
585	0.7326548
586	0.7361821
587	0.7395092
588	0.7426407
589	0.7455811
590	0.748335
591	0.7508918
592	0.7532577
593	0.7554467
594	0.7574628
595	0.7593101
596	0.7609923
597	0.7625132
598	0.7638762
599	0.7650846
600	0.7661414
601	0.7670493
602	0.7678138
603	0.7684374
604	0.7689223
605	0.7692338
606	0.7692469
607	0.7691243
608	0.7688672
609	0.7684771
610	0.7679552
611	0.7673137
612	0.7665447
613	0.7656491
614	0.7646278
615	0.7634816
616	0.7621948
617	0.7607823
618	0.759245
619	0.7575836
620	0.7557635
621	0.7533512
622	0.7508125
623	0.7481477
624	0.7453572
625	0.7424418
626	0.7394293
627	0.7362958
628	0.7330426
629	0.7296712
630	0.7261835
631	0.7225817
632	0.7188684
633	0.7150467
634	0.7111203
635	0.7070927
636	0.7030616
637	0.6995324
638	0.6959283
639	0.6922569
640	0.6885267
641	0.6847854
642	0.6810047
643	0.677195
644	0.6733676
645	0.6695344
646	0.6656695
647	0.661826
648	0.6580187
649	0.654263
650	0.6505753
651	0.6470076
652	0.6435394
653	0.6413772
654	0.6408359
655	0.6404924
656	0.6403648
657	0.6404702
658	0.6408246
659	0.6414428
660	0.6423378
661	0.6435054
662	0.6449758
663	0.6467563
664	0.6488514
665	0.6512634
666	0.6539929
667	0.6570294
668	0.6603671
669	0.6639976
670	0.6679099
671	0.6724465
672	0.6773159
673	0.6824157
674	0.6877257
675	0.6932245
676	0.6988898
677	0.7046986
678	0.7106277
679	0.7166539
680	0.7227545
681	0.7289353
682	0.735148
683	0.7413715
684	0.7475861
685	0.7537732
686	0.7598858
687	0.7659385
688	0.7719174
689	0.7776428
690	0.7825803
691	0.7874501
692	0.7922439
693	0.7969546
694	0.801576
695	0.8061028
696	0.8105308
697	0.8148562
698	0.8190765
699	0.8231895
700	0.8271938
701	0.8310885
702	0.8348732
703	0.8385481
704	0.8421136
705	0.8455705
706	0.8489201
707	0.8521636
708	0.8553029
709	0.8582212
710	0.8609328
711	0.8635555
712	0.8660911
713	0.8685416
714	0.8709087
715	0.8731946
716	0.8754011
717	0.8775303
718	0.8795842
719	0.8815649
720	0.8834743
721	0.8853191
722	0.8870961
723	0.8888072
724	0.8904544
725	0.8920395
726	0.8935644
727	0.8950309
728	0.8964405
729	0.8977952
730	0.8989952
731	0.9000968
732	0.9011524
733	0.9021634
734	0.903131
735	0.9040562
736	0.9049403
737	0.9057844
738	0.9065893
739	0.9073563
740	0.9080861
741	0.9087799
742	0.9094384
743	0.9100624
744	0.910653
745	0.9112107
746	0.9117364
747	0.9122308
748	0.9126946
749	0.9131284
750	0.9135329
751	0.9139087
752	0.9142295
753	0.9145031
754	0.9147503
755	0.9149716
756	0.9151674
757	0.9153382
758	0.9154844
759	0.9156063
760	0.9157042
761	0.9157804
762	0.9158336
763	0.915864
764	0.9158721
765	0.9158582
766	0.9158224
767	0.915765
768	0.9156864
769	0.9155868
770	0.9154664
771	0.9153227
772	0.9151585
773	0.9149741
774	0.9147696
775	0.9145465
776	0.9143148
777	0.9140637
778	0.9137938
779	0.913505
780	0.9131978
781	0.9128724
782	0.912529
783	0.9121679
784	0.9117895
785	0.9113939
786	0.9109816
787	0.9105528
788	0.9101079
789	0.9096473
790	0.9091713
791	0.9086804
792	0.9081749
793	0.9076553
794	0.9071222
795	0.906576
796	0.9060173
797	0.9054466
798	0.9048645
799	0.9042718
800	0.9036632
801	0.9029922
802	0.9023121
803	0.9016238
804	0.9009279
805	0.9002254
806	0.8995173
807	0.8988045
808	0.8980879
809	0.8973687
810	0.8966481
811	0.8959324
812	0.8952175
813	0.8945047
814	0.8937953
815	0.8930905
816	0.8923918
817	0.8917006
818	0.8910183
819	0.8903464
820	0.8896863
821	0.889035
822	0.8883989
823	0.8877795
824	0.8871786
825	0.8865976
826	0.8860384
827	0.8854496
828	0.8848147
829	0.8842052
830	0.8836227
831	0.883072
832	0.882551
833	0.8820612
834	0.8816039
835	0.8811805
836	0.8807924
837	0.8804407
838	0.8801266
839	0.8798511
840	0.8796151
841	0.8794183
842	0.8792631
843	0.8791502
844	0.87908
845	0.879053
846	0.8790694
847	0.8791293
848	0.8792328
849	0.8793798
850	0.87957
851	0.879803
852	0.8800784
853	0.8803956
854	0.8807538
855	0.8811523
856	0.8815573
857	0.8819983
858	0.8824767
859	0.8829914
860	0.8835411
861	0.884121
862	0.8847328
863	0.8853753
864	0.8860469
865	0.8867462
866	0.8874716
867	0.8882217
868	0.8889949
869	0.8897896
870	0.8906043
871	0.8914424
872	0.8922976
873	0.8931684
874	0.8940531
875	0.8949505
876	0.8958589
877	0.8967769
878	0.8977032
879	0.8986365
880	0.8995754
881	0.9005132
882	0.9014541
883	0.9023971
884	0.9033411
885	0.9042849
886	0.9052445
887	0.9062279
888	0.9072075
889	0.9081825
890	0.909152
891	0.9101154
892	0.911072
893	0.912021
894	0.9129621
895	0.9138945
896	0.9148179
897	0.9157317
898	0.9166356
899	0.9175291
900	0.918412
901	0.9192885
902	0.9201537
903	0.9210072
904	0.9218489
905	0.9226786
906	0.923496
907	0.9243012
908	0.925094
909	0.9258743
910	0.926642
911	0.9273932
912	0.9281319
913	0.9288582
914	0.929572
915	0.9302733
916	0.9309623
917	0.9316389
918	0.9323032
919	0.9329468
920	0.9335727
921	0.93419
922	0.9347955
923	0.9353893
924	0.9359715
925	0.9365422
926	0.9371015
927	0.9376496
928	0.9381866
929	0.9387125
930	0.9392276
931	0.9397295
932	0.9402208
933	0.9407018
934	0.9411726
935	0.9416334
936	0.9420842
937	0.9425252
938	0.9429565
939	0.9433783
940	0.9437908
941	0.9441939
942	0.944588
943	0.9449731
944	0.9453493
945	0.9457169
946	0.9460758
947	0.9464263
948	0.9467684
949	0.9471024
950	0.9474283
951	0.9477476
952	0.9480591
953	0.9483627
954	0.9486486
955	0.9488997
956	0.9491439
957	0.9493813
958	0.949612
959	0.949836
960	0.9500535
961	0.9502635
962	0.9504672
963	0.9506648
964	0.9508562
965	0.9510415
966	0.9512209
967	0.9513945
968	0.9515622
969	0.9517242
970	0.9518805
971	0.9520312
972	0.9521764
973	0.9523162
974	0.9524505
975	0.9525796
976	0.9527034
977	0.952822
978	0.9529354
979	0.9530438
980	0.9531472
981	0.9532458
982	0.9533395
983	0.9534283
984	0.9535122
985	0.9535913
986	0.9536656
987	0.9537352
988	0.9538001
989	0.9538604
990	0.9539161
991	0.9539673
992	0.9540146
993	0.9540611
994	0.9541032
995	0.9541409
996	0.9541743
997	0.9542035
998	0.9542284
999	0.9542491
1000	0.9542656