File: data/filmetrics/trans_SiO2_Au10nm_Air10000nm_Au10nm_SiO2.txt
Wavelength (nm)	Transmittance
210	0.4035886
212	0.3746862
214	0.3645852
216	0.3872298
218	0.4391563
220	0.4780153
222	0.450598
224	0.3804362
226	0.3603309
228	0.4249028
230	0.4761197
232	0.4017493
234	0.3519504
236	0.4295484
238	0.4598374
240	0.356248
242	0.3845709
244	0.4677424
246	0.3587501
248	0.3791021
250	0.4577204
252	0.3377063
254	0.4087703
256	0.4109489
258	0.3323759
260	0.4525725
262	0.3320498
264	0.4037009
266	0.374491
268	0.3464004
270	0.4153556
272	0.3171468
274	0.4332381
276	0.3072604
278	0.434178
280	0.3046768
282	0.4308817
284	0.302851
286	0.4294518
288	0.3007508
290	0.4286811
292	0.3017837
294	0.4196001
296	0.3128291
298	0.3918067
300	0.3426278
302	0.3483801
304	0.3939799
306	0.3123238
308	0.4359508
310	0.3105204
312	0.4071138
314	0.3618862
316	0.3375123
318	0.4409632
320	0.3188949
322	0.4172852
324	0.3898384
326	0.3371199
328	0.4652026
330	0.3538099
332	0.3790802
334	0.4660931
336	0.3451429
338	0.4179453
340	0.4574853
342	0.34968
344	0.4416737
346	0.4582772
348	0.3566208
350	0.4475135
352	0.4718151
354	0.3642209
356	0.4367114
358	0.4958312
360	0.378202
362	0.4120406
364	0.5156802
366	0.4085101
368	0.3840124
370	0.500521
372	0.4630686
374	0.3745464
376	0.4421179
378	0.5188498
380	0.4096297
382	0.3875912
384	0.4961834
386	0.4939336
388	0.3903815
390	0.412498
392	0.5230144
394	0.4753852
396	0.3886643
398	0.4289228
400	0.5332744
402	0.4766113
404	0.3944751
406	0.4313611
408	0.5363793
410	0.4981662
412	0.4075569
414	0.4221314
416	0.5249455
418	0.5349158
420	0.4359422
422	0.4117673
424	0.4902877
426	0.5650045
428	0.4925639
430	0.4211844
432	0.4463305
434	0.5446384
436	0.5667053
438	0.47636
440	0.4316693
442	0.4795166
444	0.576928
446	0.5768587
448	0.4879231
450	0.4507534
452	0.500713
454	0.598573
456	0.6096595
458	0.5244953
460	0.4758509
462	0.5079773
464	0.6010168
466	0.6504112
468	0.5852409
470	0.513981
472	0.5105278
474	0.5792697
476	0.6677417
478	0.6664508
480	0.5878758
482	0.5370502
484	0.5548845
486	0.6346778
488	0.7141256
490	0.7003464
492	0.6220158
494	0.572182
496	0.586528
498	0.6581157
500	0.7410617
502	0.7464971
504	0.6728925
506	0.6067112
508	0.5942313
510	0.6434872
512	0.7309005
514	0.7839591
516	0.7433282
518	0.6590325
520	0.6059142
522	0.6109467
524	0.6727045
526	0.7609109
528	0.8003492
530	0.7456199
532	0.6577316
534	0.6036292
536	0.6053134
538	0.662267
540	0.7513696
542	0.8062518
544	0.768336
546	0.6779578
548	0.6072467
550	0.5864315
552	0.6199562
554	0.6988605
556	0.7833665
558	0.8017243
560	0.7343214
562	0.6447756
564	0.587997
566	0.5817495
568	0.6249285
570	0.7074222
572	0.790928
574	0.8108433
576	0.7498577
578	0.6639865
580	0.6043228
582	0.5882042
584	0.6176126
586	0.687391
588	0.774799
590	0.8283868
592	0.8046804
594	0.726946
596	0.6500426
598	0.6054254
600	0.6015286
602	0.6382794
604	0.7093414
606	0.791609
608	0.8391384
610	0.8167472
612	0.7439381
614	0.6679585
616	0.6185713
618	0.605128
620	0.6285607
622	0.6862634
624	0.7646827
626	0.8322172
628	0.8485221
630	0.8036107
632	0.7295779
634	0.6636341
636	0.6246309
638	0.6167641
640	0.6415237
642	0.6957584
644	0.7683842
646	0.8334784
648	0.8564481
650	0.8229745
652	0.7547715
654	0.6825356
656	0.6290759
658	0.6034254
660	0.6070685
662	0.6391252
664	0.6954754
666	0.7635245
668	0.8173009
670	0.8266363
672	0.7827244
674	0.7090747
676	0.6361265
678	0.5820355
680	0.5530171
682	0.5499522
684	0.572266
686	0.6180446
688	0.6805556
690	0.7433037
692	0.7781818
694	0.7636621
696	0.7064471
698	0.6335922
700	0.56884
702	0.5234588
704	0.5003645
706	0.499489
708	0.520304
710	0.5620886
712	0.6203145
714	0.6828277
716	0.7275402
718	0.7319048
720	0.6921963
722	0.6272973
724	0.5609051
726	0.5075836
728	0.4726077
730	0.4568308
732	0.459901
734	0.4811332
736	0.5198134
738	0.5729181
740	0.6316055
742	0.6787425
744	0.6941747
746	0.6693763
748	0.6154686
750	0.5528018
752	0.4971158
754	0.4557821
756	0.4304357
758	0.4208659
760	0.4265895
762	0.4473599
764	0.482724
766	0.5305323
768	0.5843834
770	0.631428
772	0.6548526
774	0.6438877
776	0.6028169
778	0.5470906
780	0.491967
782	0.4464076
784	0.4137553
786	0.3944546
788	0.3880518
790	0.3941411
792	0.4125768
794	0.4431301
796	0.4844975
798	0.5325657
800	0.5785588
802	0.6096322
804	0.6138924
806	0.5891385
808	0.5444206
810	0.4931089
812	0.4456005
814	0.4072529
816	0.3798047
818	0.3632787
820	0.357222
822	0.3612846
824	0.3753568
826	0.3993963
828	0.4331616
830	0.4745026
832	0.5184402
834	0.5563895
836	0.5777512
838	0.5750697
840	0.5490652
842	0.5080552
844	0.4624707
846	0.4201582
848	0.3852539
850	0.3592038
852	0.3420954
854	0.3335667
856	0.3333059
858	0.3411606
860	0.3571005
862	0.3810909
864	0.4126103
866	0.4498972
868	0.4890112
870	0.5233277
872	0.5446652
874	0.546686
876	0.5285821
878	0.4955797
880	0.4557041
882	0.4160361
884	0.3810307
886	0.3527184
888	0.3315734
890	0.3176082
892	0.3104921
894	0.3099491
896	0.3158497
898	0.3281976
900	0.3470154
902	0.3721063
904	0.4026336
906	0.4365386
908	0.4699791
910	0.497336
912	0.5125001
914	0.5113732
916	0.4940772
918	0.4648612
920	0.4298739
922	0.3945353
924	0.3624745
926	0.3355525
928	0.3144198
930	0.299085
932	0.2893066
934	0.2848194
936	0.2854385
938	0.2910909
940	0.3017957
942	0.3175906
944	0.3383863
946	0.3637237
948	0.3924219
950	0.4221922
952	0.4494294
954	0.4696574
956	0.4789115
958	0.4747609
960	0.4580993
962	0.432434
964	0.4022833
966	0.3716666
968	0.3433615
970	0.3189042
972	0.2989288
974	0.2835425
976	0.2726064
978	0.2659116
980	0.2632748
982	0.264583
984	0.2697988
986	0.2789478
988	0.2920752
990	0.3091599
992	0.32998
994	0.3538692
996	0.3796251
998	0.4051538
1000	0.4275243
1002	0.4433914
1004	0.4498956
1006	0.4457067
1008	0.4315794
1010	0.4100195
1012	0.3843074
1014	0.3575097
1016	0.3319203
1018	0.3089615
1020	0.2893444
1022	0.2733144
1024	0.2608521
1026	0.251821
1028	0.246058
1030	0.243424
1032	0.2438256
1034	0.2471166
1036	0.2532446
1038	0.2624044
1040	0.2746127
1042	0.2898152
1044	0.3077944
1046	0.3280447
1048	0.3496281
1050	0.3710565
1052	0.3902973
1054	0.4049918
1056	0.4129568
1058	0.4128221
1060	0.404507
1062	0.3892476
1064	0.3691583
1066	0.3465909
1068	0.3236105
1070	0.301737
1072	0.2819246
1074	0.2646727
1076	0.2501649
1078	0.2383988
1080	0.2293037
1082	0.2227255
1084	0.2185414
1086	0.2166542
1088	0.2170004
1090	0.2195514
1092	0.2243089
1094	0.2312945
1096	0.2405304
1098	0.2520102
1100	0.265654
1102	0.2812474
1104	0.2983641
1106	0.3162844
1108	0.3339382
1110	0.3499183
1112	0.3626149
1114	0.3704971
1116	0.3724713
1118	0.3681959
1120	0.3581848
1122	0.3436488
1124	0.3261576
1126	0.3072842
1128	0.2883715
1130	0.2703943
1132	0.2539512
1134	0.2393857
1136	0.2268391
1138	0.2163261
1140	0.2077913
1142	0.2011478
1144	0.1963042
1146	0.1931781
1148	0.1917053
1150	0.1918428
1152	0.1935694
1154	0.1968837
1156	0.2017985
1158	0.208333
1160	0.2165001
1162	0.2262872
1164	0.2376297
1166	0.2503761
1168	0.2642457
1170	0.2787839
1172	0.2933287
1174	0.3070068
1176	0.3187883
1178	0.3276026
1180	0.3325254
1182	0.3332932
1184	0.3297147
1186	0.3219721
1188	0.3108642
1190	0.2974103
1192	0.2826565
1194	0.2675287
1196	0.2527562
1198	0.2388556
1200	0.2261546
1202	0.2148326
1204	0.2049647
1206	0.1965569
1208	0.1895744
1210	0.1839647
1212	0.1796688
1214	0.1766326
1216	0.1748103
1218	0.1741683
1220	0.1746854
1222	0.1763536
1224	0.1791761
1226	0.1831652
1228	0.1883383
1230	0.1947119
1232	0.2022931
1234	0.2110684
1236	0.2209875
1238	0.2319435
1240	0.2438227
1242	0.2571751
1244	0.2707631
1246	0.2840525
1248	0.2963928
1250	0.3070646
1252	0.3153588
1254	0.3206797
1256	0.3226471
1258	0.321166
1260	0.3164421
1262	0.3089369
1264	0.2992787
1266	0.2881606
1268	0.2762504
1270	0.2641269
1272	0.2522522
1274	0.2409715
1276	0.2305181
1278	0.221037
1280	0.2126062
1282	0.2052566
1284	0.1989877
1286	0.1937815
1288	0.1896107
1290	0.1864457
1292	0.1842588
1294	0.1830268
1296	0.1827334
1298	0.1833692
1300	0.1849326
1302	0.1874292
1304	0.1908711
1306	0.1952539
1308	0.2005907
1310	0.2069252
1312	0.2142702
1314	0.2226273
1316	0.231979
1318	0.242279
1320	0.2534406
1322	0.2653238
1324	0.2777228
1326	0.2903555
1328	0.3028591
1330	0.3147963
1332	0.3256738
1334	0.3349799
1336	0.3422305
1338	0.3470275
1340	0.349112
1342	0.3483996
1344	0.344992
1346	0.3391588
1348	0.3312962
1350	0.3218741
1352	0.3113777
1354	0.3002761
1356	0.2889779
1358	0.2778207
1360	0.2670673
1362	0.2569127
1364	0.2474868
1366	0.2388752
1368	0.231125
1370	0.2242565
1372	0.218271
1374	0.213158
1376	0.2089003
1378	0.2053427
1380	0.2020583
1382	0.199591
1384	0.1979187
1386	0.1970238
1388	0.1968929
1390	0.1975174
1392	0.1988932
1394	0.2010198
1396	0.2039005
1398	0.2075402
1400	0.2119449
1402	0.2171189
1404	0.2230632
1406	0.2297715
1408	0.2372268
1410	0.2453962
1412	0.2542245
1414	0.2636307
1416	0.2734993
1418	0.2836756
1420	0.2939608
1422	0.3041152
1424	0.3138502
1426	0.3228496
1428	0.3307787
1430	0.3373102
1432	0.3421503
1434	0.345067
1436	0.3459151
1438	0.3446522
1440	0.3413432
1442	0.3361524
1444	0.3293242
1446	0.321157
1448	0.3119751
1450	0.3021026
1452	0.291843
1454	0.2814647
1456	0.2711943
1458	0.2612125
1460	0.2515195
1462	0.2423002
1464	0.2336927
1466	0.2257396
1468	0.2184628
1470	0.2118688
1472	0.2059534
1474	0.2007049
1476	0.196107
1478	0.1921414
1480	0.1887887
1482	0.1860309
1484	0.1838501
1486	0.1822309
1488	0.18116
1490	0.180627
1492	0.1806231
1494	0.1811433
1496	0.1821846
1498	0.1837459
1500	0.1858277
1502	0.188432
1504	0.1915612
1506	0.1952176
1508	0.1994022
1510	0.2041136
1512	0.2093461
1514	0.2150884
1516	0.2213209
1518	0.2280131
1520	0.2351224
1522	0.2425888
1524	0.2503338
1526	0.2582576
1528	0.2662373
1530	0.2741268
1532	0.2817543
1534	0.2889369
1536	0.2954776
1538	0.301177
1540	0.3058453
1542	0.3093204
1544	0.3114641
1546	0.3121891
1548	0.3114616
1550	0.30931
1552	0.3058638
1554	0.3011865
1556	0.2954378
1558	0.2888012
1560	0.2814718
1562	0.2736443
1564	0.2655033
1566	0.2572167
1568	0.2489311
1570	0.2407699
1572	0.2328336
1574	0.2252009
1576	0.2179309
1578	0.2110659
1580	0.2046341
1582	0.1986523
1584	0.1931282
1586	0.1880632
1588	0.1834531
1590	0.1792903
1592	0.1755648
1594	0.1722655
1596	0.1693807
1598	0.1668987
1600	0.1648086
1602	0.1630999
1604	0.1617633
1606	0.1607909
1608	0.1601756
1610	0.159912
1612	0.1599957
1614	0.1604239
1616	0.1611946
1618	0.1623072
1620	0.1637618
1622	0.1655593
1624	0.167701
1626	0.1701886
1628	0.1730235
1630	0.1762064
1632	0.1797369
1634	0.1836128
1636	0.1878294
1638	0.1923788
1640	0.1972486
1642	0.2024224
1644	0.2078749
1646	0.2135749
1648	0.2194813
1650	0.2255432
1652	0.2316988
1654	0.2378735
1656	0.2439821
1658	0.2499316
1660	0.2556179
1662	0.2609305
1664	0.2657555
1666	0.269981
1668	0.2735013
1670	0.2762228
1672	0.2780639
1674	0.2789756
1676	0.2789293
1678	0.2779236
1680	0.2759844
1682	0.2731683
1684	0.2695431
1686	0.2651997
1688	0.2602412
1690	0.2547774
1692	0.24892
1694	0.2427777
1696	0.236453
1698	0.2300396
1700	0.2236206
1702	0.2172655
1704	0.2110376
1706	0.2049865
1708	0.199151
1710	0.1935616
1712	0.1882415
1714	0.1832051
1716	0.1784625
1718	0.1740189
1720	0.1698763
1722	0.1660335
1724	0.1624872
1726	0.1592326
1728	0.1562638
1730	0.1535745
1732	0.1511575
1734	0.1490062
1736	0.1471136
1738	0.1454733
1740	0.144079
1742	0.1429257
1744	0.1420079
1746	0.1413211
1748	0.1408615
1750	0.1406259
1752	0.1406114
1754	0.1408162
1756	0.1412391
1758	0.1418791
1760	0.1427358
1762	0.1438094
1764	0.1451
1766	0.1466084
1768	0.1483353
1770	0.1502813
1772	0.1524529
1774	0.1548533
1776	0.1574738
1778	0.1603134
1780	0.1633699
1782	0.1666405
1784	0.1701198
1786	0.1738004
1788	0.1776727
1790	0.1817238
1792	0.1859375
1794	0.1902937
1796	0.1947679
1798	0.199331
1800	0.2039483
1802	0.2085784
1804	0.2131786
1806	0.2176992
1808	0.2220863
1810	0.2262823
1812	0.2302312
1814	0.2338684
1816	0.2371337
1818	0.2399694
1820	0.2423227
1822	0.2441476
1824	0.2454069
1826	0.246074
1828	0.2461338
1830	0.2455838
1832	0.2444288
1834	0.2426959
1836	0.2404178
1838	0.2376368
1840	0.2344027
1842	0.2307745
1844	0.2268063
1846	0.2225578
1848	0.2180883
1850	0.2134551
1852	0.2087124
1854	0.20391
1856	0.1990931
1858	0.1943017
1860	0.1895709
1862	0.1849287
1864	0.1804023
1866	0.1760118
1868	0.1717737
1870	0.1677007
1872	0.1638031
1874	0.1600865
1876	0.1565553
1878	0.1532119
1880	0.1500572
1882	0.1470906
1884	0.1443106
1886	0.1417148
1888	0.1393004
1890	0.1370639
1892	0.1350019
1894	0.1331106
1896	0.1313861
1898	0.1298245
1900	0.1284222
1902	0.1271755
1904	0.126081
1906	0.1251356
1908	0.1243361
1910	0.1236792
1912	0.1231638
1914	0.1227875
1916	0.1225486
1918	0.1224454
1920	0.1224768
1922	0.1226413
1924	0.1229385
1926	0.1233679
1928	0.1239291
1930	0.1246221
1932	0.1254468
1934	0.1264035
1936	0.1274921
1938	0.1287133
1940	0.130067
1942	0.1315537
1944	0.133174
1946	0.1349275
1948	0.1368143
1950	0.1388336
1952	0.1409848
1954	0.143266
1956	0.1456756
1958	0.1482102
1960	0.1508664
1962	0.153638
1964	0.1565202
1966	0.1595046
1968	0.1625832
1970	0.1657443
1972	0.1689774
1974	0.172267
1976	0.1755958
1978	0.1789458
1980	0.1822952
1982	0.1856191
1984	0.1888939
1986	0.1920935
1988	0.1951884
1990	0.1981497
1992	0.2009499
1994	0.2035559
1996	0.2059366
1998	0.2080638
2000	0.2099096
2002	0.2114456
2004	0.2126541
2006	0.213518
2008	0.2140246
2010	0.2141656
2012	0.2139429
2014	0.2133542
2016	0.212407
2018	0.2111136
2020	0.2094908
2022	0.2075551
2024	0.2053348
2026	0.2028569
2028	0.2001494
2030	0.1972424
2032	0.1941686
2034	0.1909548
2036	0.1876296
2038	0.1842208
2040	0.1807552
2042	0.1772544
2044	0.1737441
2046	0.1702442
2048	0.1667735
2050	0.1633473
2052	0.1599818
2054	0.1566864
2056	0.1534721
2058	0.1503464
2060	0.147317
2062	0.1443878
2064	0.1415646
2066	0.1388502
2068	0.1362459
2070	0.1337539
2072	0.1313749
2074	0.1291088
2076	0.1269546
2078	0.1249119
2080	0.1229789
2082	0.1211546
2084	0.1194369
2086	0.1178245
2088	0.1163151
2090	0.114907
2092	0.1135979
2094	0.1123859
2096	0.1112691
2098	0.1102455
2100	0.1093133
2102	0.1084709
2104	0.1077165
2106	0.1070485
2108	0.1064655
2110	0.105966
2112	0.1055486
2114	0.1052124
2116	0.1049562
2118	0.1047793
2120	0.1046808
2122	0.1046602
2124	0.1047166
2126	0.1048497
2128	0.1050589
2130	0.105344
2132	0.1057046
2134	0.1061407
2136	0.1066523
2138	0.1072392
2140	0.1079017
2142	0.1086396
2144	0.1094533
2146	0.1103424
2148	0.1113075
2150	0.1123483
2152	0.1134652
2154	0.1146578
2156	0.1159264
2158	0.1172704
2160	0.1186897
2162	0.1201834
2164	0.1217507
2166	0.1233911
2168	0.1251029
2170	0.1268848
2172	0.1287344
2174	0.1306499
2176	0.1326279
2178	0.1346656
2180	0.1367585
2182	0.1389039
2184	0.141095
2186	0.1433265
2188	0.1455913
2190	0.1478826
2192	0.1501898
2194	0.1525057
2196	0.1548208
2198	0.157124
2200	0.1594045
2202	0.161652
2204	0.1638524
2206	0.1659916
2208	0.1680565
2210	0.1700327
2212	0.1719034
2214	0.1736569
2216	0.1752799
2218	0.1767587
2220	0.1780812
2222	0.1792353
2224	0.1802107
2226	0.1809983
2228	0.1815903
2230	0.181981
2232	0.1821701
2234	0.1821515
2236	0.1819248
2238	0.1814918
2240	0.1808561
2242	0.1800189
2244	0.1789917
2246	0.177783
2248	0.1764029
2250	0.1748627
2252	0.1731746
2254	0.1713515
2256	0.169411
2258	0.1673633
2260	0.1652213
2262	0.1630019
2264	0.1607149
2266	0.1583738
2268	0.1559907
2270	0.1535779
2272	0.1511438
2274	0.1487019
2276	0.1462612
2278	0.1438311
2280	0.1414191
2282	0.1390329
2284	0.1366783
2286	0.1343616
2288	0.1320874
2290	0.1298599
2292	0.1276842
2294	0.1255618
2296	0.1234956
2298	0.1214873
2300	0.119539
2302	0.1176509
2304	0.1158251
2306	0.1140618
2308	0.1123617
2310	0.1107245
2312	0.1091504
2314	0.1076389
2316	0.1061898
2318	0.1048023
2320	0.1034756
2322	0.1022094
2324	0.1010024
2326	0.099854
2328	0.0987632
2330	0.0977292
2332	0.0967508
2334	0.0958273
2336	0.0949576
2338	0.0941407
2340	0.0933758
2342	0.0926621
2344	0.0919986
2346	0.0913845
2348	0.090819
2350	0.0903012
2352	0.0898306
2354	0.0894063
2356	0.0890277
2358	0.0886942
2360	0.0884051
2362	0.0881599
2364	0.0879582
2366	0.0877994
2368	0.0876833
2370	0.0876093
2372	0.0875774
2374	0.087587
2376	0.087638
2378	0.08773
2380	0.0878628
2382	0.0880363
2384	0.0882504
2386	0.0885048
2388	0.0887997
2390	0.0891348
2392	0.0895102
2394	0.0899257
2396	0.0903815
2398	0.0908775
2400	0.0914137