File: data/filmetrics/transmittance_sio2.txt.tsv
Wavelength (nm)	Transmittance
200	0.8825804
202	0.8932647
204	0.9043374
206	0.9155831
208	0.9267888
210	0.937747
212	0.9500393
214	0.9613705
216	0.9714402
218	0.9800893
220	0.9872547
222	0.9927938
224	0.9967539
226	0.9991327
228	0.9999938
230	0.999429
232	0.9975714
234	0.9945462
236	0.9905088
238	0.985614
240	0.9799931
242	0.9738363
244	0.9672382
246	0.9603336
248	0.9532394
250	0.946053
252	0.9389125
254	0.9318509
256	0.9249508
258	0.9182677
260	0.9118376
262	0.9057093
264	0.8999045
266	0.8944538
268	0.8893719
270	0.8846661
272	0.880346
274	0.8764134
276	0.8728674
278	0.8697024
280	0.8669166
282	0.8645047
284	0.86246
286	0.8607638
288	0.8594025
290	0.8583752
292	0.8576709
294	0.8572784
296	0.8571692
298	0.857328
300	0.8577579
302	0.8584468
304	0.8593821
306	0.8605408
308	0.8619093
310	0.8634854
312	0.8652336
314	0.8671639
316	0.8692642
318	0.871523
320	0.8739285
322	0.8764436
324	0.8790821
326	0.88182
328	0.8846461
330	0.8875632
332	0.8905609
334	0.8936293
336	0.8967454
338	0.8998998
340	0.9030966
342	0.9063271
344	0.9095826
346	0.9128549
348	0.9161358
350	0.9194176
352	0.922668
354	0.9259054
356	0.9291229
358	0.9323143
360	0.9354732
362	0.9385938
364	0.9416704
366	0.9446872
368	0.9476397
370	0.9505348
372	0.9533679
374	0.9561353
376	0.9588237
378	0.9614309
380	0.9639634
382	0.9664184
384	0.9687935
386	0.9710864
388	0.9732952
390	0.9754182
392	0.9774539
394	0.9794012
396	0.981259
398	0.9830267
400	0.9847038
402	0.9862798
404	0.9877661
406	0.9891627
408	0.99047
410	0.9916883
412	0.9928182
414	0.9938606
416	0.9948162
418	0.9956862
420	0.9964716
422	0.9971737
424	0.9977939
426	0.9983321
428	0.9987907
430	0.999173
432	0.9994806
434	0.9997152
436	0.9998791
438	0.9999735
440	0.9999996
442	0.9999602
444	0.999858
446	0.9996942
448	0.9994703
450	0.9991887
452	0.9988513
454	0.9984601
456	0.9980172
458	0.9975244
460	0.9969838
462	0.9964005
464	0.9957736
466	0.9951032
468	0.9943909
470	0.9936402
472	0.9928571
474	0.9920394
476	0.9911891
478	0.9903077
480	0.9893969
482	0.9884583
484	0.9874936
486	0.9865042
488	0.9854918
490	0.9844578
492	0.9834035
494	0.9823306
496	0.9812402
498	0.9801337
500	0.9790124
502	0.977882
504	0.9767392
506	0.9755828
508	0.9744141
510	0.9732365
512	0.9720509
514	0.9708583
516	0.9696618
518	0.9684621
520	0.967258
522	0.9660469
524	0.9648333
526	0.9636198
528	0.9624069
530	0.9611937
532	0.9599808
534	0.9587688
536	0.9575572
538	0.9563466
540	0.9551392
542	0.9539377
544	0.9527401
546	0.9515469
548	0.9503585
550	0.9491755
552	0.9479983
554	0.9468273
556	0.9456628
558	0.9445053
560	0.9433551
562	0.9422125
564	0.9410778
566	0.9399513
568	0.9388334
570	0.9377242
572	0.936624
574	0.935533
576	0.9344515
578	0.9333796
580	0.9323175
582	0.931264
584	0.9302203
586	0.9291874
588	0.9281657
590	0.9271546
592	0.9261541
594	0.9251644
596	0.9241855
598	0.9232175
600	0.9222606
602	0.9213114
604	0.9203731
606	0.9194473
608	0.9185345
610	0.9176328
612	0.9167383
614	0.9158547
616	0.9149843
618	0.9141274
620	0.9132818
622	0.9124474
624	0.9116244
626	0.9108099
628	0.9100037
630	0.9092084
632	0.9084239
634	0.9076503
636	0.9068905
638	0.9061449
640	0.9054103
642	0.90468
644	0.9039602
646	0.9032546
648	0.9025632
650	0.9018827
652	0.9012053
654	0.9005382
656	0.8998814
658	0.8992348
660	0.8985983
662	0.8979803
664	0.8973725
666	0.8967707
668	0.8961744
670	0.895588
672	0.8950113
674	0.8944442
676	0.8938867
678	0.8933387
680	0.8928001
682	0.8922805
684	0.8917704
686	0.8912648
688	0.8907633
690	0.8902708
692	0.8897873
694	0.8893125
696	0.8888465
698	0.8883893
700	0.8879405
702	0.8875003
704	0.8870685
706	0.8866451
708	0.8862299
710	0.8858228
712	0.8854239
714	0.885033
716	0.88465
718	0.8842748
720	0.8839074
722	0.8835537
724	0.8832077
726	0.8828694
728	0.8825386
730	0.8822152
732	0.8818929
734	0.8815777
736	0.8812697
738	0.8809687
740	0.8806746
742	0.8803874
744	0.880107
746	0.8798333
748	0.8795663
750	0.8793058
752	0.8790517
754	0.8788041
756	0.8785628
758	0.8783278
760	0.878099
762	0.8778692
764	0.8776454
766	0.8774275
768	0.8772154
770	0.877009
772	0.8768156
774	0.8766278
776	0.8764456
778	0.876269
780	0.8760979
782	0.8759321
784	0.8757717
786	0.8756166
788	0.8754667
790	0.8753219
792	0.8751822
794	0.8750476
796	0.8749179
798	0.874793
800	0.874673
802	0.8745578
804	0.8744473
806	0.8743414
808	0.8742401
810	0.8741433
812	0.8740431
814	0.8739472
816	0.8738557
818	0.8737684
820	0.8736852
822	0.8736142
824	0.8735474
826	0.8734846
828	0.8734259
830	0.8733711
832	0.8733121
834	0.8732569
836	0.8732054
838	0.8731577
840	0.8731136
842	0.8730815
844	0.8730529
846	0.8730279
848	0.8730064
850	0.8729884
852	0.8729738
854	0.8729626
856	0.8729547
858	0.8729501
860	0.8729487
862	0.8729421
864	0.8729385
866	0.872938
868	0.8729405
870	0.8729461
872	0.8729631
874	0.8729831
876	0.8730059
878	0.8730316
880	0.8730602
882	0.8730828
884	0.8731082
886	0.8731362
888	0.8731668
890	0.8732
892	0.8732358
894	0.8732741
896	0.8733149
898	0.8733581
900	0.8734037
902	0.8734605
904	0.8735197
906	0.8735812
908	0.873645
910	0.8737111
912	0.8737706
914	0.8738322
916	0.8738959
918	0.8739618
920	0.8740298
922	0.8741087
924	0.8741897
926	0.8742726
928	0.8743576
930	0.8744445
932	0.8745243
934	0.8746061
936	0.8746896
938	0.874775
940	0.8748622
942	0.8749512
944	0.8750418
946	0.8751342
948	0.8752283
950	0.875324
952	0.8754304
954	0.8755384
956	0.875648
958	0.8757592
960	0.8758719
962	0.8759771
964	0.8760838
966	0.8761919
968	0.8763014
970	0.8764124
972	0.8765247
974	0.8766384
976	0.8767535
978	0.8768699
980	0.8769876
982	0.8771157
984	0.877245
986	0.8773756
988	0.8775074
990	0.8776405
992	0.8777655
994	0.8778918
996	0.8780192
998	0.8781477
1000	0.8782773
1002	0.878408
1004	0.8785397
1006	0.8786725
1008	0.8788063
1010	0.8789412
1012	0.879077
1014	0.8792138
1016	0.8793515
1018	0.8794902
1020	0.8796298
1022	0.8797795
1024	0.8799301
1026	0.8800815
1028	0.8802338
1030	0.8803869
1032	0.8805317
1034	0.8806773
1036	0.8808238
1038	0.8809709
1040	0.8811189
1042	0.8812676
1044	0.8814171
1046	0.8815672
1048	0.8817181
1050	0.8818697
1052	0.882022
1054	0.8821749
1056	0.8823285
1058	0.8824827
1060	0.8826375
1062	0.882793
1064	0.882949
1066	0.8831057
1068	0.8832629
1070	0.8834207
1072	0.8835882
1074	0.8837561
1076	0.8839246
1078	0.8840937
1080	0.8842632
1082	0.8844241
1084	0.8845855
1086	0.8847474
1088	0.8849097
1090	0.8850725
1092	0.8852357
1094	0.8853993
1096	0.8855634
1098	0.8857279
1100	0.8858928
1102	0.886058
1104	0.8862237
1106	0.8863897
1108	0.886556
1110	0.8867228
1112	0.8868898
1114	0.8870572
1116	0.8872249
1118	0.887393
1120	0.8875613
1122	0.8877299
1124	0.8878988
1126	0.888068
1128	0.8882375
1130	0.8884072
1132	0.8885862
1134	0.8887654
1136	0.8889448
1138	0.8891244
1140	0.8893042
1142	0.8894753
1144	0.8896466
1146	0.8898181
1148	0.8899898
1150	0.8901617
1152	0.8903338
1154	0.890506
1156	0.8906784
1158	0.8908509
1160	0.8910236
1162	0.8911965
1164	0.8913695
1166	0.8915426
1168	0.8917158
1170	0.8918891
1172	0.8920626
1174	0.8922362
1176	0.8924098
1178	0.8925836
1180	0.8927574
1182	0.8929313
1184	0.8931053
1186	0.8932794
1188	0.8934535
1190	0.8936277
1192	0.8938019
1194	0.8939762
1196	0.8941505
1198	0.8943249
1200	0.8944993
1202	0.8946825
1204	0.8948656
1206	0.8950488
1208	0.8952319
1210	0.895415
1212	0.8955895
1214	0.8957639
1216	0.8959383
1218	0.8961127
1220	0.8962871
1222	0.8964615
1224	0.8966359
1226	0.8968102
1228	0.8969845
1230	0.8971587
1232	0.8973329
1234	0.8975071
1236	0.8976812
1238	0.8978552
1240	0.8980292
1242	0.8982031
1244	0.898377
1246	0.8985508
1248	0.8987245
1250	0.8988982
1252	0.8990717
1254	0.8992452
1256	0.8994186
1258	0.8995919
1260	0.8997651
1262	0.8999382
1264	0.9001112
1266	0.9002841
1268	0.9004569
1270	0.9006296
1272	0.9008105
1274	0.9009914
1276	0.9011721
1278	0.9013527
1280	0.9015331
1282	0.901705
1284	0.9018768
1286	0.9020485
1288	0.90222
1290	0.9023913
1292	0.9025625
1294	0.9027336
1296	0.9029045
1298	0.9030753
1300	0.9032459
1302	0.9034164
1304	0.9035867
1306	0.9037568
1308	0.9039268
1310	0.9040967
1312	0.9042663
1314	0.9044358
1316	0.9046051
1318	0.9047743
1320	0.9049432
1322	0.905112
1324	0.9052806
1326	0.905449
1328	0.9056173
1330	0.9057853
1332	0.9059532
1334	0.9061209
1336	0.9062884
1338	0.9064557
1340	0.9066227
1342	0.9067897
1344	0.9069564
1346	0.9071229
1348	0.9072892
1350	0.9074553
1352	0.9076292
1354	0.9078029
1356	0.9079764
1358	0.9081496
1360	0.9083226
1362	0.9084874
1364	0.908652
1366	0.9088164
1368	0.9089805
1370	0.9091444
1372	0.9093081
1374	0.9094716
1376	0.9096349
1378	0.9097979
1380	0.9099607
1382	0.9101233
1384	0.9102857
1386	0.9104478
1388	0.9106097
1390	0.9107713
1392	0.9109328
1394	0.911094
1396	0.9112549
1398	0.9114157
1400	0.9115762
1402	0.9117364
1404	0.9118964
1406	0.9120562
1408	0.9122157
1410	0.912375
1412	0.9125418
1414	0.9127084
1416	0.9128746
1418	0.9130406
1420	0.9132063
1422	0.9133641
1424	0.9135216
1426	0.9136789
1428	0.913836
1430	0.9139927
1432	0.9141493
1434	0.9143055
1436	0.9144616
1438	0.9146173
1440	0.9147729
1442	0.9149281
1444	0.9150831
1446	0.9152379
1448	0.9153924
1450	0.9155466
1452	0.9157006
1454	0.9158544
1456	0.9160078
1458	0.916161
1460	0.916314
1462	0.9164667
1464	0.9166191
1466	0.9167713
1468	0.9169232
1470	0.9170749
1472	0.9172262
1474	0.9173774
1476	0.9175282
1478	0.9176788
1480	0.9178292
1482	0.9179866
1484	0.9181438
1486	0.9183007
1488	0.9184573
1490	0.9186136
1492	0.9187623
1494	0.9189107
1496	0.9190589
1498	0.9192068
1500	0.9193544
1502	0.9195018
1504	0.9196489
1506	0.9197958
1508	0.9199423
1510	0.9200886
1512	0.9202347
1514	0.9203804
1516	0.9205259
1518	0.9206711
1520	0.9208161
1522	0.9209608
1524	0.9211052
1526	0.9212494
1528	0.9213933
1530	0.9215369
1532	0.9216873
1534	0.9218375
1536	0.9219874
1538	0.922137
1540	0.9222864
1542	0.9224283
1544	0.92257
1546	0.9227114
1548	0.9228525
1550	0.9229934
1552	0.923134
1554	0.9232743
1556	0.9234144
1558	0.9235542
1560	0.9236937
1562	0.923833
1564	0.923972
1566	0.9241107
1568	0.9242491
1570	0.9243873
1572	0.9245252
1574	0.9246629
1576	0.9248002
1578	0.9249373
1580	0.9250742
1582	0.9252176
1584	0.9253608
1586	0.9255036
1588	0.9256462
1590	0.9257885
1592	0.9259237
1594	0.9260586
1596	0.9261932
1598	0.9263276
1600	0.9264617
1602	0.9265955
1604	0.9267291
1606	0.9268624
1608	0.9269954
1610	0.9271282
1612	0.9272607
1614	0.9273929
1616	0.9275249
1618	0.9276566
1620	0.9277881
1622	0.9279192
1624	0.9280501
1626	0.9281808
1628	0.9283112
1630	0.9284413
1632	0.9285778
1634	0.928714
1636	0.9288499
1638	0.9289855
1640	0.9291208
1642	0.9292493
1644	0.9293775
1646	0.9295055
1648	0.9296332
1650	0.9297606
1652	0.9298878
1654	0.9300147
1656	0.9301414
1658	0.9302678
1660	0.9303939
1662	0.9305198
1664	0.9306454
1666	0.9307707
1668	0.9308958
1670	0.9310206
1672	0.9311517
1674	0.9312824
1676	0.9314128
1678	0.931543
1680	0.9316729
1682	0.9317961
1684	0.9319191
1686	0.9320419
1688	0.9321643
1690	0.9322865
1692	0.9324085
1694	0.9325302
1696	0.9326516
1698	0.9327728
1700	0.9328938
1702	0.9330207
1704	0.9331475
1706	0.9332739
1708	0.9334
1710	0.9335259
1712	0.9336453
1714	0.9337644
1716	0.9338833
1718	0.9340019
1720	0.9341203
1722	0.9342384
1724	0.9343563
1726	0.9344739
1728	0.9345913
1730	0.9347084
1732	0.9348253
1734	0.9349419
1736	0.9350583
1738	0.9351744
1740	0.9352903
1742	0.9354121
1744	0.9355336
1746	0.9356548
1748	0.9357758
1750	0.9358965
1752	0.9360108
1754	0.936125
1756	0.9362389
1758	0.9363525
1760	0.9364659
1762	0.9365791
1764	0.936692
1766	0.9368047
1768	0.9369171
1770	0.9370293
1772	0.9371472
1774	0.9372649
1776	0.9373823
1778	0.9374995
1780	0.9376164
1782	0.9377271
1784	0.9378376
1786	0.9379478
1788	0.9380578
1790	0.9381676
1792	0.9382771
1794	0.9383864
1796	0.9384955
1798	0.9386043
1800	0.9387129
1802	0.9388271
1804	0.9389411
1806	0.9390548
1808	0.9391682
1810	0.9392814
1812	0.9393886
1814	0.9394955
1816	0.9396022
1818	0.9397087
1820	0.9398149
1822	0.939921
1824	0.9400267
1826	0.9401323
1828	0.9402376
1830	0.9403427
1832	0.9404533
1834	0.9405636
1836	0.9406737
1838	0.9407836
1840	0.9408932
1842	0.9409969
1844	0.9411004
1846	0.9412036
1848	0.9413067
1850	0.9414095
1852	0.9415121
1854	0.9416144
1856	0.9417166
1858	0.9418185
1860	0.9419202
1862	0.9420273
1864	0.9421341
1866	0.9422407
1868	0.942347
1870	0.9424531
1872	0.9425535
1874	0.9426536
1876	0.9427535
1878	0.9428532
1880	0.9429527
1882	0.943052
1884	0.943151
1886	0.9432498
1888	0.9433485
1890	0.9434469
1892	0.9435505
1894	0.9436539
1896	0.9437571
1898	0.9438601
1900	0.9439628
1902	0.9440599
1904	0.9441568
1906	0.9442535
1908	0.9443499
1910	0.9444462
1912	0.9445476
1914	0.9446488
1916	0.9447498
1918	0.9448505
1920	0.944951
1922	0.945046
1924	0.9451408
1926	0.9452353
1928	0.9453297
1930	0.9454238
1932	0.945523
1934	0.9456221
1936	0.9457208
1938	0.9458194
1940	0.9459178
1942	0.9460107
1944	0.9461034
1946	0.9461958
1948	0.9462881
1950	0.9463802
1952	0.9464721
1954	0.9465638
1956	0.9466552
1958	0.9467465
1960	0.9468376
1962	0.9469337
1964	0.9470295
1966	0.9471252
1968	0.9472206
1970	0.9473158
1972	0.9474057
1974	0.9474954
1976	0.9475849
1978	0.9476741
1980	0.9477632
1982	0.9478572
1984	0.947951
1986	0.9480446
1988	0.948138
1990	0.9482312
1992	0.9483191
1994	0.9484068
1996	0.9484943
1998	0.9485816
2000	0.9486688