File: data/filmetrics/transmittance_SiO2_Au10_Air10000_fpi.txt.tsv
Wavelength (nm)	Transmittance
200	0.2296616
207	0.2021248
214	0.1495722
221	0.1522527
228	0.2275032
235	0.1900155
242	0.1843224
249	0.1204967
256	0.1613977
263	0.1924107
270	0.1731417
277	0.1198843
284	0.0930616
291	0.1693499
298	0.1509675
305	0.1110534
312	0.1659555
319	0.1615159
326	0.1112435
333	0.2169214
340	0.2589165
347	0.1724605
354	0.1421013
361	0.1411104
368	0.1470269
375	0.150118
382	0.1504583
389	0.1517262
396	0.1637577
403	0.205651
410	0.2999626
417	0.3412822
424	0.2306899
431	0.1849418
438	0.2638249
445	0.3917281
452	0.2459779
459	0.2757946
466	0.4607007
473	0.291779
480	0.4089297
487	0.4440994
494	0.3787078
501	0.5860278
508	0.3871278
515	0.6609109
522	0.3916248
529	0.7030264
536	0.3813962
543	0.7116448
550	0.3758971
557	0.6220248
564	0.424076
571	0.4608231
578	0.6229133
585	0.3662113
592	0.8094895
599	0.4058784
606	0.5108502
613	0.7121284
620	0.376001
627	0.6835555
634	0.6015356
641	0.3939154
648	0.749841
655	0.5792337
662	0.3580995
669	0.6586291
676	0.5987131
683	0.2846086
690	0.4268918
697	0.7811493
704	0.2696059
711	0.2440881
718	0.672262
725	0.4289506
732	0.1851912
739	0.2412485
746	0.7882828
753	0.3117948
760	0.1504039
767	0.1992224
774	0.6954179
781	0.339578
788	0.1339124
795	0.135208
802	0.3523155
809	0.6389407
816	0.1609521
823	0.0995308
830	0.1357304
837	0.4601744
844	0.4619156
851	0.128207
858	0.0843637
865	0.1092693
872	0.3130483
879	0.6493425
886	0.152496
893	0.0779668
900	0.0743798
907	0.1285727
914	0.494179
921	0.3950188
928	0.108046
935	0.0627372
942	0.0611705
949	0.0984814
956	0.3221798
963	0.577981
970	0.1326187
977	0.0626415
984	0.0491342
991	0.0576402
998	0.1066744
1005	0.3920724
1012	0.4700787
1019	0.1146595
1026	0.0554267
1033	0.0416996
1040	0.0436208
1047	0.0648789
1054	0.1588659
1061	0.6744789
1068	0.2305213
1075	0.0729191
1082	0.040526
1089	0.0318925
1096	0.0330889
1103	0.0456417
1110	0.0923954
1117	0.3547435
1124	0.441983
1131	0.1007875
1138	0.0441439
1145	0.0286041
1152	0.0240813
1159	0.0252777
1166	0.0333881
1173	0.0594716
1180	0.174218
1187	0.6644908
1194	0.1659038
1201	0.0564721
1208	0.0309064
1215	0.022311
1222	0.0196639
1229	0.0206061
1236	0.0257883
1243	0.0405564
1250	0.08843
1257	0.3204384
1264	0.502272
1271	0.1312338
1278	0.0560662
1285	0.0340178
1292	0.0256524
1299	0.0226805
1306	0.0229326
1313	0.0263374
1320	0.0347949
1327	0.0546414
1334	0.1094975
1341	0.3106461
1348	0.6090907
1355	0.2261134
1362	0.0941314
1369	0.0536399
1376	0.0375646
1383	0.0298037
1390	0.0264235
1397	0.0259769
1404	0.0282169
1411	0.0340686
1418	0.0465408
1425	0.0746252
1432	0.1501732
1439	0.3936712
1446	0.5508459
1453	0.2157685
1460	0.0948546
1467	0.0535589
1474	0.0361087
1481	0.0276402
1488	0.0233645
1495	0.0214875
1502	0.0213457
1509	0.0228746
1516	0.0265561
1523	0.0337724
1530	0.0480717
1537	0.0796466
1544	0.1640315
1551	0.417423
1558	0.4912862
1565	0.1948533
1572	0.0881447
1579	0.0501555
1586	0.0334597
1593	0.0249932
1600	0.0203564
1607	0.0177991
1614	0.0165575
1621	0.0163091
1628	0.0169853
1635	0.0187312
1642	0.021982
1649	0.0277143
1656	0.0381568
1663	0.059007
1670	0.1074854
1677	0.2435082
1684	0.5178939
1691	0.3278508
1698	0.1348164
1705	0.0681225
1712	0.0412923
1719	0.0283997
1726	0.0214036
1733	0.0173094
1740	0.0148275
1747	0.013343
1754	0.0125509
1761	0.0123042
1768	0.0125563
1775	0.0133477
1782	0.0148099
1789	0.0172151
1796	0.0211043
1803	0.0275795
1810	0.0390888
1817	0.0618111
1824	0.1139932
1831	0.2539176
1838	0.4851096
1845	0.3013068
1852	0.1303256
1859	0.0672066
1866	0.0407997
1873	0.0277909
1880	0.020574
1887	0.0162281
1894	0.0134653
1901	0.0116553
1908	0.0104656
1915	0.0097094
1922	0.0092842
1929	0.0091366
1936	0.0092458
1943	0.0096224
1950	0.0103079
1957	0.0113853
1964	0.0130016
1971	0.0154169
1978	0.0191054
1985	0.0249785
1992	0.0349612
1999	0.0535974
2006	0.0931662
2013	0.1902482
2020	0.394819
2027	0.3655294
2034	0.1695187
2041	0.0838919
2048	0.0486184
2055	0.0317493
2062	0.0225926
2069	0.0171381
2076	0.0136639
2083	0.0113409
2090	0.0097341
2097	0.0086008
2104	0.0077957
2111	0.0072309
2118	0.0068518
2125	0.0066239
2132	0.0065281
2139	0.0065562
2146	0.0067087
2153	0.0069965
2160	0.0074419
2167	0.0080806
2174	0.008972
2181	0.010209
2188	0.0119431
2195	0.0144251
2202	0.0180996
2209	0.0238034
2216	0.033237
2223	0.050248
2230	0.0846097
2237	0.1629728
2244	0.3255746
2251	0.362456
2258	0.1906045
2265	0.0952861
2272	0.0543997
2279	0.0348278
2286	0.0242609
2293	0.0179949
2300	0.0140074
2307	0.0113285
2314	0.0094543
2321	0.0081013
2328	0.0071015
2335	0.0063509
2342	0.0057819
2349	0.0053495
2356	0.0050239
2363	0.0047846
2370	0.0046175
2377	0.0045128
2384	0.004465
2391	0.0044714
2398	0.004532
2405	0.0046491
2412	0.0048285
2419	0.005079
2426	0.0054133
2433	0.0058508
2440	0.0064194
2447	0.0071596
2454	0.0081311
2461	0.0094252
2468	0.0111858
2475	0.0136454
2482	0.0172913
2489	0.0230227
2496	0.0321933
2503	0.0479533
2510	0.0774975
2517	0.1377726
2524	0.2554204
2531	0.3536538
2538	0.2557927
2545	0.1420837
2552	0.0829231
2559	0.053213
2566	0.0369906
2573	0.0273499
2580	0.0212097
2587	0.0170798
2594	0.0141798
2601	0.012073
2608	0.0105006
2615	0.0093016
2622	0.0083721
2629	0.0076429
2636	0.0070662
2643	0.0066084
2650	0.0062457
2657	0.0059606
2664	0.0057403
2671	0.0055757
2678	0.0054597
2685	0.0053878
2692	0.0053565
2699	0.0053641
2706	0.0054096
2713	0.0054935
2720	0.005617
2727	0.0057828
2734	0.0059943
2741	0.0062568
2748	0.006577
2755	0.0069637
2762	0.0074283
2769	0.0079855
2776	0.0086545
2783	0.0094604
2790	0.0104364
2797	0.0116268
2804	0.0130917
2811	0.0149145
2818	0.0172121
2825	0.020153
2832	0.0239855
2839	0.0290857
2846	0.0360416
2853	0.0458024
2860	0.0599522
2867	0.0812143
2874	0.1142975
2881	0.1668115
2888	0.2470719
2895	0.3453496
2902	0.396885
2909	0.3457698
2916	0.2513401
2923	0.1742505
2930	0.1230522
2937	0.090162
2944	0.0685967
2951	0.0539689
2958	0.0436976
2965	0.0362548
2972	0.0307122
2979	0.0264867
2986	0.0231998
2993	0.0205992
3000	0.0185114
3007	0.0168149
3014	0.0154222
3021	0.0142694
3028	0.0133088
3035	0.0125047
3042	0.0118294
3049	0.0112618
3056	0.0107853
3063	0.0103867
3070	0.0100558
3077	0.0097844
3084	0.009566
3091	0.0093954
3098	0.0092687
3105	0.0091827
3112	0.0091352
3119	0.0091247
3126	0.0091501
3133	0.0092111
3140	0.0093078
3147	0.009441
3154	0.0096119
3161	0.0098223
3168	0.0100746
3175	0.0103719
3182	0.0107181
3189	0.011118
3196	0.0115771
3203	0.0121025
3210	0.0127023
3217	0.0133868
3224	0.014168
3231	0.0150605
3238	0.0160822
3245	0.0172548
3252	0.0186052
3259	0.0201665
3266	0.02198
3273	0.0240977
3280	0.0265856
3287	0.0295278
3294	0.0330337
3301	0.0372458
3308	0.0423523
3315	0.0486055
3322	0.0563456
3329	0.0660385
3336	0.0783247
3343	0.0940891
3350	0.1145485
3357	0.1413287
3364	0.1764559
3371	0.2220184
3378	0.2789202
3385	0.3439226
3392	0.4053513
3399	0.4428873
3406	0.4398058
3413	0.3989204
3420	0.3391768
3427	0.2786418
3434	0.2263488
3441	0.184346
3448	0.1515816
3455	0.1262097
3462	0.1064898
3469	0.0910249
3476	0.0787627
3483	0.0689256
3490	0.0609436
3497	0.0543964
3504	0.0489717
3511	0.0444354
3518	0.0406103
3525	0.0373602
3532	0.0345798
3539	0.0321868
3546	0.0301159
3553	0.0283153
3560	0.0267433
3567	0.0253659
3574	0.0241557
3581	0.0230899
3588	0.0221497
3595	0.0213195
3602	0.0205862
3609	0.0199389
3616	0.0193683
3623	0.0188667
3630	0.0184274
3637	0.0180448
3644	0.0177142
3651	0.0174314
3658	0.0171931
3665	0.0169963
3672	0.0168387
3679	0.0167183
3686	0.0166333
3693	0.0165826
3700	0.0165651
3707	0.01658
3714	0.016627
3721	0.0167058
3728	0.0168164
3735	0.0169591
3742	0.0171343
3749	0.0173429
3756	0.0175856
3763	0.0178639
3770	0.018179
3777	0.0185328
3784	0.0189274
3791	0.0193649
3798	0.0198483
3805	0.0203806
3812	0.0209653
3819	0.0216065
3826	0.0223088
3833	0.0230772
3840	0.0239177
3847	0.0248369
3854	0.0258425
3861	0.0269429
3868	0.028148
3875	0.029469
3882	0.0309185
3889	0.0325114
3896	0.0342641
3903	0.0361962
3910	0.0383301
3917	0.0406914
3924	0.0433102
3931	0.0462214
3938	0.0494661
3945	0.0530918
3952	0.0571549
3959	0.0617221
3966	0.0668711
3973	0.072695
3980	0.0793046
3987	0.0868298
3994	0.0954266
4001	0.1052796
4008	0.1166052
4015	0.1296585
4022	0.1447344
4029	0.1621633
4036	0.1823078
4043	0.2055394
4050	0.2321887
4057	0.2624766
4064	0.2963832
4071	0.3334568
4078	0.3725977
4085	0.4118343
4092	0.4482552
4099	0.478247
4106	0.4981911
4113	0.5054468
4120	0.4992226
4127	0.48083
4134	0.4531643
4141	0.419764
4148	0.3839202
4155	0.3481764
4162	0.3142165
4169	0.2829682
4176	0.2548141
4183	0.2297915
4190	0.2077324
4197	0.1883717
4204	0.171414
4211	0.156562
4218	0.1435391
4225	0.1320998
4232	0.1220264
4239	0.1131308
4246	0.1052532
4253	0.0982555
4260	0.0920207
4267	0.0864487
4274	0.0814554
4281	0.0769677
4288	0.0729236
4295	0.0692704
4302	0.0659623
4309	0.0629597
4316	0.0602292
4323	0.057741
4330	0.0554696
4337	0.0533928
4344	0.0514912
4351	0.0497475
4358	0.0481469
4365	0.0466763
4372	0.0453238
4379	0.0440793
4386	0.0429336
4393	0.0418786
4400	0.040907
4407	0.0400125
4414	0.0391892
4421	0.038432
4428	0.0377363
4435	0.037098
4442	0.0365133
4449	0.0359789
4456	0.0354918
4463	0.0350493
4470	0.034649
4477	0.0342887
4484	0.0339665
4491	0.0336806
4498	0.0334295
4505	0.0332117
4512	0.0330261
4519	0.0328714
4526	0.0327469
4533	0.0326515
4540	0.0325847
4547	0.0325457
4554	0.0325341
4561	0.0325494
4568	0.0325913
4575	0.0326596
4582	0.032754
4589	0.0328746
4596	0.0330213
4603	0.0331942
4610	0.0333935
4617	0.0336194
4624	0.0338722
4631	0.0341522
4638	0.0344601
4645	0.0347962
4652	0.0351613
4659	0.035556
4666	0.0359812
4673	0.0364377
4680	0.0369265
4687	0.0374487
4694	0.0380055
4701	0.0385981
4708	0.0392279
4715	0.0398965
4722	0.0406056
4729	0.0413568
4736	0.0421521
4743	0.0429936
4750	0.0438836
4757	0.0448244
4764	0.0458187
4771	0.0468693
4778	0.0479791
4785	0.0491516
4792	0.0503902
4799	0.0516987
4806	0.0530812
4813	0.0545422
4820	0.0560863
4827	0.0577188
4834	0.0594454
4841	0.0612718
4848	0.0632047
4855	0.0652512
4862	0.0674186
4869	0.0697154
4876	0.0721506
4883	0.0747335
4890	0.0774747
4897	0.0803859
4904	0.0834787
4911	0.0867669
4918	0.0902647
4925	0.0939882
4932	0.0979537
4939	0.1021799
4946	0.1066869
4953	0.1114958
4960	0.1166299
4967	0.122115
4974	0.1279771
4981	0.1342459
4988	0.1409528
4995	0.1481304
5002	0.1558143
5009	0.1640425
5016	0.1728533
5023	0.1822879
5030	0.1923891
5037	0.2031978
5044	0.2147569
5051	0.2271079
5058	0.2402867
5065	0.2543266
5072	0.2692526
5079	0.2850802
5086	0.3018074
5093	0.3194167
5100	0.337867
5107	0.3570844
5114	0.376964
5121	0.3973603
5128	0.4180791
5135	0.4388814
5142	0.4594793
5149	0.4795344
5156	0.4986731
5163	0.516494
5170	0.5325824
5177	0.5465382
5184	0.5579961
5191	0.5666487
5198	0.572273
5205	0.5747433
5212	0.574041
5219	0.5702549
5226	0.5635711
5233	0.5542584
5240	0.542645
5247	0.5290963
5254	0.5139912
5261	0.4977062
5268	0.4805933
5275	0.4629721
5282	0.4451261
5289	0.427293
5296	0.4096682
5303	0.392411
5310	0.3756405
5317	0.3594445
5324	0.3438866
5331	0.3290048
5338	0.3148187
5345	0.3013365
5352	0.2885518
5359	0.2764501
5366	0.2650131
5373	0.2542154
5380	0.2440291
5387	0.2344264
5394	0.2253769
5401	0.2168503
5408	0.2088166
5415	0.2012478
5422	0.1941156
5429	0.1873928
5436	0.1810548
5443	0.1750772
5450	0.1694367
5457	0.1641129
5464	0.1590854
5471	0.1543351
5478	0.1498451
5485	0.1455988
5492	0.1415807
5499	0.1377772
5506	0.1341748
5513	0.130761
5520	0.1275249
5527	0.1244554
5534	0.1215427
5541	0.1187778
5548	0.116152
5555	0.1136572
5562	0.1112861
5569	0.1090319
5576	0.1068879
5583	0.1048481
5590	0.1029071
5597	0.1010596
5604	0.0993005
5611	0.0976255
5618	0.0960302
5625	0.0945106
5632	0.0930631
5639	0.0916841
5646	0.0903702
5653	0.0891187
5660	0.0879264
5667	0.0867907
5674	0.0857091
5681	0.0846793
5688	0.083699
5695	0.0827661
5702	0.0818787
5709	0.0810349
5716	0.080233
5723	0.0794714
5730	0.0787486
5737	0.0780629
5744	0.0774133
5751	0.0767984
5758	0.0762168
5765	0.0756677
5772	0.0751498
5779	0.0746623
5786	0.074204
5793	0.0737743
5800	0.0733722
5807	0.0729969
5814	0.0726478
5821	0.0723241
5828	0.0720252
5835	0.0717505
5842	0.0714994
5849	0.0712714
5856	0.071066
5863	0.0708828
5870	0.0707212
5877	0.0705809
5884	0.0704616
5891	0.0703628
5898	0.0702843
5905	0.0702258
5912	0.0701869
5919	0.0701675
5926	0.0701674
5933	0.0701863
5940	0.070224
5947	0.0702804
5954	0.0703554
5961	0.0704488
5968	0.0705605
5975	0.0706905
5982	0.0708386
5989	0.0710049
5996	0.0711894
6003	0.0713918
6010	0.0716124
6017	0.0718512
6024	0.072108
6031	0.0723831
6038	0.0726764
6045	0.0729881
6052	0.0733183
6059	0.073667
6066	0.0740344
6073	0.0744207
6080	0.074826
6087	0.0752505
6094	0.0756943
6101	0.0761577
6108	0.076641
6115	0.0771443
6122	0.0776679
6129	0.0782121
6136	0.0787771
6143	0.0793634
6150	0.0799711
6157	0.0806007
6164	0.0812525
6171	0.0819269
6178	0.0826242
6185	0.0833449
6192	0.0840894
6199	0.0848582
6206	0.0856517
6213	0.0864704
6220	0.0873149
6227	0.0881856
6234	0.0890832
6241	0.0900082
6248	0.0909611
6255	0.0919426
6262	0.0929535
6269	0.0939943
6276	0.0950656
6283	0.0961684
6290	0.0973032
6297	0.0984709
6304	0.0996724
6311	0.1009083
6318	0.1021796
6325	0.1034872
6332	0.1048319
6339	0.1062148
6346	0.1076369
6353	0.1090991
6360	0.1106025
6367	0.1121484
6374	0.1137376
6381	0.1153714
6388	0.117051
6395	0.1187778
6402	0.1205529
6409	0.1223777
6416	0.1242537
6423	0.126182
6430	0.1281643
6437	0.1302022
6444	0.132297
6451	0.1344504
6458	0.1366642
6465	0.1389398
6472	0.1412792
6479	0.1436842
6486	0.1461565
6493	0.1486981
6500	0.1513111
6507	0.1539972
6514	0.1567586
6521	0.1595976
6528	0.162516
6535	0.1655163
6542	0.1686007
6549	0.1717717
6556	0.1750313
6563	0.1783822
6570	0.181827
6577	0.1853678
6584	0.1890073
6591	0.1927485
6598	0.1965934
6605	0.200545
6612	0.2046062
6619	0.2087792
6626	0.2130669
6633	0.2174725
6640	0.2219979
6647	0.2266463
6654	0.2314206
6661	0.2363229
6668	0.241356
6675	0.2465229
6682	0.2518254
6689	0.2572661
6696	0.2628477
6703	0.2685717
6710	0.2744403
6717	0.2804554
6724	0.286619
6731	0.2929316
6738	0.2993948
6745	0.3060097
6752	0.312776
6759	0.3196943
6766	0.3267647
6773	0.3339856
6780	0.3413562
6787	0.3488752
6794	0.3565394
6801	0.3643463
6808	0.3722927
6815	0.3803733
6822	0.3885836
6829	0.396918
6836	0.4053688
6843	0.4139288
6850	0.4225898
6857	0.4313412
6864	0.4401728
6871	0.4490728
6878	0.4580291
6885	0.4670266
6892	0.4760508
6899	0.4850863
6906	0.4941147
6913	0.5031183
6920	0.5120785
6927	0.5209738
6934	0.5297838
6941	0.5384871
6948	0.5470599
6955	0.5554796
6962	0.5637231
6969	0.5717652
6976	0.5795824
6983	0.587151
6990	0.5944461
6997	0.6014447
7004	0.6081243
7011	0.6144619
7018	0.6204367
7025	0.6260291
7032	0.6312198
7039	0.6359921
7046	0.6403308
7053	0.6442227
7060	0.6476558
7067	0.650621
7074	0.6531115
7081	0.6551219
7088	0.65665
7095	0.6576956
7102	0.6582603
7109	0.6583487
7116	0.6579669
7123	0.6571235
7130	0.6558288
7137	0.6540948
7144	0.6519356
7151	0.6493663
7158	0.6464034
7165	0.643065
7172	0.6393697
7179	0.6353365
7186	0.6309862
7193	0.626339
7200	0.6214156
7207	0.6162366
7214	0.6108234
7221	0.6051965
7228	0.5993756
7235	0.5933817
7242	0.5872336
7249	0.5809498
7256	0.5745493
7263	0.5680492
7270	0.5614658
7277	0.5548157
7284	0.5481136
7291	0.5413734
7298	0.5346092
7305	0.5278331
7312	0.5210565
7319	0.514291
7326	0.5075462
7333	0.5008311
7340	0.4941549
7347	0.487525
7354	0.4809481
7361	0.4744313
7368	0.46798
7375	0.4615994
7382	0.4552936
7389	0.4490676
7396	0.4429243
7403	0.4368666
7410	0.4308977
7417	0.4250196
7424	0.4192338
7431	0.4135424
7438	0.4079463
7445	0.402446
7452	0.3970428
7459	0.3917367
7466	0.3865275
7473	0.3814159
7480	0.3764013
7487	0.3714828
7494	0.3666606
7501	0.3619337
7508	0.3573009
7515	0.3527619
7522	0.3483154
7529	0.3439603
7536	0.3396952
7543	0.3355193
7550	0.3314311
7557	0.327429
7564	0.3235121
7571	0.3196789
7578	0.3159276
7585	0.3122573
7592	0.3086663
7599	0.3051529
7606	0.3017161
7613	0.2983542
7620	0.2950655
7627	0.2918491
7634	0.2887032
7641	0.2856262
7648	0.2826173
7655	0.2796743
7662	0.2767963
7669	0.2739822
7676	0.2712298
7683	0.2685384
7690	0.2659069
7697	0.2633333
7704	0.2608166
7711	0.2583561
7718	0.2559499
7725	0.2535969
7732	0.2512965
7739	0.2490468
7746	0.2468471
7753	0.2446964
7760	0.2425932
7767	0.2405368
7774	0.2385262
7781	0.2365601
7788	0.2346377
7795	0.2327583
7802	0.2309205
7809	0.2291235
7816	0.2273668
7823	0.2256491
7830	0.2239696
7837	0.2223278
7844	0.2207225
7851	0.2191531
7858	0.2176189
7865	0.216119
7872	0.2146528
7879	0.2132196
7886	0.2118186
7893	0.2104491
7900	0.2091107
7907	0.2078024
7914	0.2065239
7921	0.2052745
7928	0.2040535
7935	0.2028605
7942	0.2016947
7949	0.2005557
7956	0.1994431
7963	0.1983561
7970	0.1972944
7977	0.1962576
7984	0.1952449
7991	0.194256
7998	0.1932906
8005	0.192348
8012	0.191428
8019	0.1905301
8026	0.1896537
8033	0.1887987
8040	0.1879646
8047	0.1871509
8054	0.1863574
8061	0.1855838
8068	0.1848295
8075	0.1840944
8082	0.1833781
8089	0.1826801
8096	0.1820004
8103	0.1813385
8110	0.1806941
8117	0.180067
8124	0.1794569
8131	0.1788635
8138	0.1782865
8145	0.1777258
8152	0.1771809
8159	0.1766517
8166	0.176138
8173	0.1756395
8180	0.175156
8187	0.1746873
8194	0.1742331
8201	0.1737933
8208	0.1733676
8215	0.1729559
8222	0.1725579
8229	0.1721735
8236	0.1718025
8243	0.1714446
8250	0.1710999
8257	0.170768
8264	0.1704488
8271	0.1701421
8278	0.1698479
8285	0.1695659
8292	0.169296
8299	0.169038
8306	0.1687919
8313	0.1685574
8320	0.1683345
8327	0.1681231
8334	0.1679229
8341	0.1677339
8348	0.167556
8355	0.167389
8362	0.1672329
8369	0.1670875
8376	0.1669528
8383	0.1668286
8390	0.1667148
8397	0.1666114
8404	0.1665182
8411	0.1664352
8418	0.1663622
8425	0.1662993
8432	0.1662462
8439	0.166203
8446	0.1661696
8453	0.1661458
8460	0.1661316
8467	0.166127
8474	0.1661319
8481	0.1661462
8488	0.1661698
8495	0.1662028
8502	0.1662449
8509	0.1662963
8516	0.1663568
8523	0.1664263
8530	0.1665049
8537	0.1665925
8544	0.1666889
8551	0.1667943
8558	0.1669086
8565	0.1670316
8572	0.1671634
8579	0.1673039
8586	0.1674532
8593	0.1676111
8600	0.1677776
8607	0.1679528
8614	0.1681365
8621	0.1683288
8628	0.1685296
8635	0.1687389
8642	0.1689567
8649	0.1691829
8656	0.1694176
8663	0.1696607
8670	0.1699122
8677	0.170172
8684	0.1704403
8691	0.170717
8698	0.1710019
8705	0.1712953
8712	0.1715969
8719	0.1719069
8726	0.1722252
8733	0.1725519
8740	0.1728868
8747	0.1732301
8754	0.1735817
8761	0.1739415
8768	0.1743097
8775	0.1746862
8782	0.175071
8789	0.1754642
8796	0.1758657
8803	0.1762755
8810	0.1766937
8817	0.1771202
8824	0.1775551
8831	0.1779983
8838	0.17845
8845	0.17891
8852	0.1793785
8859	0.1798554
8866	0.1803407
8873	0.1808345
8880	0.1813368
8887	0.1818476
8894	0.1823669
8901	0.1828948
8908	0.1834312
8915	0.1839762
8922	0.1845297
8929	0.185092
8936	0.1856629
8943	0.1862425
8950	0.1868308
8957	0.1874279
8964	0.1880337
8971	0.1886483
8978	0.1892718
8985	0.1899041
8992	0.1905453
8999	0.1911955
9006	0.1918546
9013	0.1925227
9020	0.1931999
9027	0.193886
9034	0.1945814
9041	0.1952859
9048	0.1959995
9055	0.1967224
9062	0.1974545
9069	0.1981959
9076	0.1989467
9083	0.1997069
9090	0.2004765
9097	0.2012556
9104	0.2020442
9111	0.2028423
9118	0.2036501
9125	0.2044675
9132	0.2052946
9139	0.2061315
9146	0.2069782
9153	0.2078347
9160	0.2087011
9167	0.2095775
9174	0.2104638
9181	0.2113603
9188	0.2122669
9195	0.2131834
9202	0.2141104
9209	0.2150476
9216	0.2159949
9223	0.2169528
9230	0.2179211
9237	0.2188998
9244	0.2198891
9251	0.2208889
9258	0.2218994
9265	0.2229207
9272	0.2239526
9279	0.2249955
9286	0.2260492
9293	0.2271138
9300	0.2281895
9307	0.2292762
9314	0.230374
9321	0.231483
9328	0.2326034
9335	0.2337348
9342	0.2348778
9349	0.2360322
9356	0.237198
9363	0.2383755
9370	0.2395646
9377	0.2407652
9384	0.2419777
9391	0.2432021
9398	0.2444381
9405	0.2456862
9412	0.2469464
9419	0.2482184
9426	0.2495027
9433	0.2507992
9440	0.2521078
9447	0.2534289
9454	0.2547623
9461	0.2561081
9468	0.2574665
9475	0.2588375
9482	0.2602209
9489	0.2616172
9496	0.2630263
9503	0.264448
9510	0.2658828
9517	0.2673305
9524	0.268791
9531	0.2702648
9538	0.2717517
9545	0.2732517
9552	0.274765
9559	0.2762917
9566	0.2778316
9573	0.2793851
9580	0.2809518
9587	0.2825323
9594	0.2841264
9601	0.285734
9608	0.2873554
9615	0.2889906
9622	0.2906395
9629	0.2923024
9636	0.2939792
9643	0.2956697
9650	0.2973745
9657	0.2990934
9664	0.3008262
9671	0.3025733
9678	0.3043346
9685	0.30611
9692	0.3078998
9699	0.309704
9706	0.3115223
9713	0.3133553
9720	0.3152027
9727	0.3170643
9734	0.3189406
9741	0.3208315
9748	0.3227367
9755	0.3246567
9762	0.3265914
9769	0.3285404
9776	0.3305043
9783	0.3324829
9790	0.3344759
9797	0.3364839
9804	0.3385066
9811	0.3405437
9818	0.3425958
9825	0.3446627
9832	0.346744
9839	0.3488403
9846	0.3509513
9853	0.3530768
9860	0.3552172
9867	0.3573723
9874	0.3595418
9881	0.3617263
9888	0.3639253
9895	0.3661387
9902	0.368367
9909	0.3706094
9916	0.3728667
9923	0.3751384
9930	0.3774242
9937	0.3797247
9944	0.3820395
9951	0.3843682
9958	0.3867115
9965	0.3890688
9972	0.3914399
9979	0.3938252
9986	0.3962245
9993	0.3986373
10000	0.4010641