File: data/filmetrics/transmittance_SiO2_100_Au_35_Air_5000.txt.tsv
Wavelength (nm)	Transmittance
200	0.0040135
201	0.0073065
202	0.0045123
203	0.0030524
204	0.0045103
205	0.0087803
206	0.0061113
207	0.003656
208	0.0043878
209	0.0088992
210	0.0082688
211	0.0041955
212	0.0038097
213	0.0068592
214	0.0109553
215	0.0060012
216	0.0037902
217	0.0046855
218	0.0098118
219	0.0105933
220	0.0050805
221	0.0037865
222	0.005371
223	0.0114427
224	0.0103407
225	0.0049301
226	0.003805
227	0.0053299
228	0.011366
229	0.0111869
230	0.0051714
231	0.0036223
232	0.0044496
233	0.0090844
234	0.0129733
235	0.006423
236	0.0036427
237	0.0034843
238	0.0055942
239	0.0117082
240	0.0097529
241	0.0044449
242	0.0030355
243	0.0033572
244	0.0059781
245	0.0115824
246	0.0079767
247	0.0037075
248	0.0026147
249	0.0028464
250	0.0048362
251	0.0097487
252	0.0076869
253	0.0034358
254	0.0021995
255	0.0021299
256	0.0031004
257	0.0064812
258	0.0086024
259	0.0042576
260	0.0022382
261	0.0017458
262	0.0019693
263	0.0032389
264	0.0067232
265	0.00685
266	0.0032129
267	0.0018231
268	0.0014823
269	0.0016778
270	0.0026777
271	0.0054863
272	0.0064389
273	0.0032576
274	0.0017718
275	0.0013373
276	0.0013643
277	0.0018771
278	0.0034981
279	0.0061747
280	0.0046026
281	0.002268
282	0.0014197
283	0.0011908
284	0.0013024
285	0.0018686
286	0.0034992
287	0.0059297
288	0.0044042
289	0.0022488
290	0.0014172
291	0.0011594
292	0.0012032
293	0.0015846
294	0.0026764
295	0.0050604
296	0.0056148
297	0.0031724
298	0.0018083
299	0.0013044
300	0.0011786
301	0.0013096
302	0.0017982
303	0.0030721
304	0.0055774
305	0.0060015
306	0.003538
307	0.0020795
308	0.0014986
309	0.0013176
310	0.0013909
311	0.0017644
312	0.0027112
313	0.0048431
314	0.0072018
315	0.0057261
316	0.0033376
317	0.0021656
318	0.0016869
319	0.0015648
320	0.0016997
321	0.0021637
322	0.0032488
323	0.005572
324	0.0085394
325	0.0077823
326	0.0048847
327	0.0031495
328	0.0023592
329	0.0020558
330	0.0020497
331	0.0023477
332	0.0030826
333	0.004655
334	0.0077363
335	0.0110785
336	0.0095357
337	0.0061037
338	0.0040699
339	0.0030863
340	0.0026635
341	0.00259
342	0.0028274
343	0.0034686
344	0.0047991
345	0.0073934
346	0.0115539
347	0.0137515
348	0.0105527
349	0.0069265
350	0.0048301
351	0.0037647
352	0.0032795
353	0.0031705
354	0.0033884
355	0.0040019
356	0.0052427
357	0.007597
358	0.0116531
359	0.015927
360	0.0150566
361	0.0105953
362	0.00719
363	0.0052743
364	0.0042693
365	0.0037927
366	0.0036706
367	0.0038754
368	0.0044669
369	0.0056379
370	0.0077943
371	0.0115391
372	0.0165238
373	0.0182968
374	0.0143518
375	0.0097982
376	0.0069035
377	0.0052911
378	0.0044236
379	0.0040155
380	0.0039396
381	0.0041692
382	0.0047663
383	0.0059024
384	0.0079258
385	0.0114242
386	0.016699
387	0.0210847
388	0.0193825
389	0.0140995
390	0.0098564
391	0.0072715
392	0.0057876
393	0.0049676
394	0.00458
395	0.0045201
396	0.0047625
397	0.0053591
398	0.0064548
399	0.0083415
400	0.0115354
401	0.0166724
402	0.0230244
403	0.0257473
404	0.0216623
405	0.0157101
406	0.0113388
407	0.0086413
408	0.007044
409	0.0061282
410	0.0056674
411	0.0055527
412	0.0057533
413	0.0063028
414	0.0073178
415	0.0090171
416	0.0117971
417	0.0162817
418	0.0229878
419	0.0304542
420	0.0330649
421	0.0281999
422	0.0211433
423	0.0156683
424	0.0120987
425	0.0098752
426	0.0085247
427	0.0077602
428	0.0074334
429	0.0074767
430	0.00788
431	0.008703
432	0.0100833
433	0.0122732
434	0.0157009
435	0.0210126
436	0.0288818
437	0.0385592
438	0.0453486
439	0.0435251
440	0.0354418
441	0.0271172
442	0.0209304
443	0.0167996
444	0.0141736
445	0.0125167
446	0.0115451
447	0.0110969
448	0.0110952
449	0.0115282
450	0.0124439
451	0.0139624
452	0.0163083
453	0.0198276
454	0.0250836
455	0.0328671
456	0.0439167
457	0.0575932
458	0.0692353
459	0.0713028
460	0.0628626
461	0.0507138
462	0.040081
463	0.0322457
464	0.0268164
465	0.0231504
466	0.0207436
467	0.019262
468	0.0185007
469	0.0183294
470	0.0187416
471	0.0197699
472	0.0215185
473	0.0241807
474	0.0280757
475	0.0337051
476	0.0418233
477	0.0534457
478	0.0695254
479	0.090037
480	0.1108351
481	0.1222139
482	0.1169607
483	0.0999179
484	0.0808184
485	0.0648891
486	0.0530382
487	0.0443321
488	0.0381537
489	0.0338694
490	0.0309817
491	0.0291674
492	0.0282306
493	0.0280699
494	0.0286614
495	0.0300536
496	0.0323487
497	0.0353391
498	0.0397912
499	0.0462665
500	0.0556642
501	0.069394
502	0.0895407
503	0.1185575
504	0.1568803
505	0.1957604
506	0.2123559
507	0.1909644
508	0.1501313
509	0.1121301
510	0.084055
511	0.0647612
512	0.0516498
513	0.0426568
514	0.0364137
515	0.0320549
516	0.0290365
517	0.0269151
518	0.0254573
519	0.0246988
520	0.0245734
521	0.0250779
522	0.0262698
523	0.0282841
524	0.0313638
525	0.0359223
526	0.0426628
527	0.0528128
528	0.0685449
529	0.0938392
530	0.1356738
531	0.2019274
532	0.2790407
533	0.2942745
534	0.2235984
535	0.1466061
536	0.096197
537	0.0662939
538	0.0482649
539	0.0369281
540	0.0295578
541	0.0245637
542	0.0210914
543	0.0186439
544	0.0169209
545	0.0157372
546	0.0149783
547	0.0145774
548	0.0145017
549	0.0147473
550	0.015339
551	0.0163351
552	0.0179513
553	0.0202791
554	0.0236174
555	0.0284831
556	0.035793
557	0.0472709
558	0.0663689
559	0.1004203
560	0.164757
561	0.278204
562	0.3746985
563	0.2971002
564	0.1768172
565	0.1068315
566	0.0698244
567	0.0492227
568	0.036919
569	0.0291089
570	0.0239078
571	0.0203186
572	0.0177811
573	0.0159644
574	0.0146659
575	0.0137579
576	0.0131596
577	0.0128407
578	0.0127939
579	0.0129685
580	0.0133719
581	0.0140275
582	0.0149782
583	0.0162919
584	0.0180723
585	0.0204778
586	0.0237537
587	0.028289
588	0.0347257
589	0.0441688
590	0.0586227
591	0.0818597
592	0.1216116
593	0.1934642
594	0.3201509
595	0.4711901
596	0.461489
597	0.3099451
598	0.1908706
599	0.1232126
600	0.0851497
601	0.0625359
602	0.048289
603	0.0388504
604	0.032339
605	0.0277042
606	0.0243267
607	0.0218327
608	0.0199809
609	0.0186136
610	0.0176264
611	0.0169495
612	0.0165379
613	0.0163644
614	0.0164158
615	0.0166915
616	0.0172032
617	0.0179753
618	0.0190483
619	0.0204831
620	0.0223757
621	0.0249457
622	0.0283088
623	0.0327596
624	0.0387486
625	0.0469869
626	0.0586377
627	0.0756807
628	0.1016244
629	0.1428848
630	0.2110636
631	0.3235308
632	0.4820899
633	0.5921278
634	0.5208961
635	0.3652141
636	0.2433891
637	0.1659098
638	0.1187115
639	0.0890087
640	0.0694987
641	0.0561575
642	0.046716
643	0.0398422
644	0.0347234
645	0.0308449
646	0.027871
647	0.0255754
648	0.0238035
649	0.0224474
650	0.0214314
651	0.0207022
652	0.0202239
653	0.0197529
654	0.0192447
655	0.0189584
656	0.0188847
657	0.0190238
658	0.0193854
659	0.0199903
660	0.0208722
661	0.0220821
662	0.0236947
663	0.0258189
664	0.0286141
665	0.0323192
666	0.0373007
667	0.0441399
668	0.0537964
669	0.0679315
670	0.0895793
671	0.1243693
672	0.1841729
673	0.2912119
674	0.464004
675	0.5932581
676	0.474918
677	0.2872307
678	0.1705422
679	0.1077035
680	0.072682
681	0.0518709
682	0.0387318
683	0.0300028
684	0.0239551
685	0.0196182
686	0.0164188
687	0.0140025
688	0.0121417
689	0.0107054
690	0.0096409
691	0.0087884
692	0.0081021
693	0.0075486
694	0.0071035
695	0.0067487
696	0.0064708
697	0.00626
698	0.0061093
699	0.0060141
700	0.0059718
701	0.0059815
702	0.0060443
703	0.0061631
704	0.0063431
705	0.0065921
706	0.0069213
707	0.0073464
708	0.0078894
709	0.0085942
710	0.0095073
711	0.0106822
712	0.0122153
713	0.0142549
714	0.0170362
715	0.0209506
716	0.0266861
717	0.0355369
718	0.0501485
719	0.0765028
720	0.129676
721	0.2486133
722	0.4666134
723	0.456716
724	0.2352317
725	0.119198
726	0.0683219
727	0.0434884
728	0.0299096
729	0.0217884
730	0.0166255
731	0.0131475
732	0.0106927
733	0.0089008
734	0.0075566
735	0.0065253
736	0.0057191
737	0.0050792
738	0.0045646
739	0.0041466
740	0.0038043
741	0.0035224
742	0.0032894
743	0.0030967
744	0.0029376
745	0.0028073
746	0.0027017
747	0.0026179
748	0.0025537
749	0.0025074
750	0.0024781
751	0.0024649
752	0.00247
753	0.0024929
754	0.0025326
755	0.0025904
756	0.002668
757	0.0027676
758	0.0028926
759	0.0030472
760	0.0032369
761	0.0034695
762	0.0037547
763	0.0041062
764	0.0045429
765	0.0050911
766	0.0057889
767	0.0066926
768	0.0078884
769	0.009513
770	0.0117942
771	0.0151331
772	0.0202896
773	0.0288344
774	0.0444103
775	0.0767682
776	0.1560165
777	0.3518354
778	0.4054059
779	0.185457
780	0.0855213
781	0.0467114
782	0.0289525
783	0.0195879
784	0.0141095
785	0.0106499
786	0.0083348
787	0.0067141
788	0.005538
789	0.0046593
790	0.0039866
791	0.0034613
792	0.0030439
793	0.0027075
794	0.0024331
795	0.0022068
796	0.0020186
797	0.001861
798	0.0017282
799	0.0016159
800	0.0015208
801	0.0014418
802	0.0013749
803	0.0013183
804	0.0012708
805	0.0012314
806	0.0011992
807	0.0011737
808	0.0011542
809	0.0011405
810	0.0011324
811	0.0011296
812	0.0011322
813	0.0011403
814	0.001154
815	0.0011736
816	0.0011995
817	0.0012323
818	0.0012728
819	0.0013219
820	0.0013808
821	0.0014511
822	0.0015347
823	0.0016341
824	0.0017528
825	0.0018949
826	0.0020661
827	0.0022762
828	0.002537
829	0.0028606
830	0.0032678
831	0.0037895
832	0.0044716
833	0.0053864
834	0.0066517
835	0.0084706
836	0.0112166
837	0.0156358
838	0.0233892
839	0.0387423
840	0.0748668
841	0.1790005
842	0.3761473
843	0.2130185
844	0.0849107
845	0.0417539
846	0.0242622
847	0.015738
848	0.0110077
849	0.0081289
850	0.0062538
851	0.0049675
852	0.0040484
853	0.0033699
854	0.0028553
855	0.0024562
856	0.0021421
857	0.0018899
858	0.0016844
859	0.0015151
860	0.0013741
861	0.0012557
862	0.0011555
863	0.0010701
864	0.0009969
865	0.0009338
866	0.0008793
867	0.0008321
868	0.0007911
869	0.0007555
870	0.0007246
871	0.0006977
872	0.0006746
873	0.0006546
874	0.0006377
875	0.0006234
876	0.0006117
877	0.0006023
878	0.000595
879	0.0005899
880	0.0005868
881	0.0005856
882	0.0005865
883	0.0005894
884	0.0005943
885	0.0006013
886	0.0006102
887	0.0006211
888	0.0006345
889	0.0006505
890	0.0006696
891	0.0006919
892	0.0007179
893	0.000748
894	0.0007829
895	0.0008233
896	0.00087
897	0.0009242
898	0.0009873
899	0.001061
900	0.0011476
901	0.00125
902	0.001372
903	0.0015188
904	0.0016972
905	0.0019167
906	0.0021907
907	0.0025387
908	0.0029896
909	0.0035879
910	0.0044054
911	0.0055636
912	0.00728
913	0.0099776
914	0.0145633
915	0.0232568
916	0.0425506
917	0.0959755
918	0.2522419
919	0.2319641
920	0.0862923
921	0.038626
922	0.0211562
923	0.0132034
924	0.0089866
925	0.0065011
926	0.0049196
927	0.0038539
928	0.003103
929	0.0025547
930	0.0021426
931	0.0018254
932	0.0015762
933	0.001377
934	0.0012154
935	0.0010826
936	0.0009722
937	0.0008795
938	0.0008011
939	0.0007341
940	0.0006765
941	0.0006267
942	0.0005834
943	0.0005456
944	0.0005125
945	0.0004833
946	0.0004574
947	0.0004346
948	0.0004143
949	0.0003963
950	0.0003802
951	0.000366
952	0.0003533
953	0.000342
954	0.0003321
955	0.0003239
956	0.0003166
957	0.0003103
958	0.000305
959	0.0003004
960	0.0002966
961	0.0002936
962	0.0002913
963	0.0002898
964	0.0002889
965	0.0002886
966	0.0002891
967	0.0002902
968	0.000292
969	0.0002946
970	0.0002978
971	0.0003019
972	0.0003067
973	0.0003124
974	0.000319
975	0.0003266
976	0.0003353
977	0.0003451
978	0.0003562
979	0.0003688
980	0.0003829
981	0.0003988
982	0.0004168
983	0.000437
984	0.0004599
985	0.0004858
986	0.0005152
987	0.0005487
988	0.0005871
989	0.0006313
990	0.0006823
991	0.0007417
992	0.0008112
993	0.000893
994	0.0009905
995	0.0011078
996	0.0012508
997	0.0014272
998	0.0016483
999	0.0019308
1000	0.0022991